Temperature Strain
304.546	0.612387
304.542	0.612387
304.53	0.612441
304.516	0.612557
304.503	0.612706
304.489	0.613035
304.474	0.613203
304.456	0.613376
304.438	0.613504
304.419	0.613574
304.399	0.61361
304.38	0.613586
304.362	0.613494
304.344	0.613355
304.327	0.61317
304.302	0.612966
304.274	0.612789
304.245	0.612616
304.215	0.612493
304.184	0.612425
304.151	0.612399
304.118	0.612496
304.086	0.612686
304.055	0.612973
304.024	0.613381
303.993	0.613744
303.965	0.614119
303.938	0.614491
303.911	0.614784
303.883	0.615014
303.85	0.615182
303.813	0.61528
303.775	0.615339
303.741	0.61536
303.71	0.615343
303.682	0.61516
303.657	0.615011
303.631	0.614811
303.599	0.614556
303.571	0.61427
303.54	0.613986
303.507	0.613658
303.472	0.613321
303.435	0.61299
303.398	0.61287
303.361	0.612531
303.323	0.612258
303.285	0.612007
303.243	0.611759
303.193	0.611522
303.136	0.611302
303.074	0.611234
303.01	0.610992
302.943	0.610706
302.877	0.6102
302.812	0.60987
302.748	0.609557
302.686	0.609218
302.628	0.609151
302.573	0.608925
302.517	0.608751
302.461	0.608638
302.404	0.608592
302.345	0.608556
302.285	0.608547
302.223	0.608583
302.158	0.608662
302.093	0.608801
302.03	0.608925
301.962	0.609071
301.892	0.609227
301.819	0.609382
301.745	0.609556
301.663	0.609708
301.578	0.609903
301.494	0.610147
301.416	0.610365
301.345	0.610541
301.279	0.610725
301.211	0.61075
301.145	0.610669
301.081	0.610477
301.016	0.61017
300.949	0.609842
300.882	0.609468
300.813	0.609068
300.742	0.608653
300.668	0.608247
300.591	0.607865
300.513	0.607531
300.44	0.607254
300.369	0.607046
300.3	0.606879
300.228	0.606768
300.158	0.606735
300.087	0.606778
300.013	0.606909
299.937	0.607224
299.857	0.607417
299.779	0.60763
299.698	0.607851
299.614	0.608092
299.527	0.608333
299.438	0.608567
299.347	0.608819
299.255	0.609052
299.164	0.609263
299.069	0.609431
298.967	0.609571
298.86	0.609689
298.754	0.609887
298.65	0.609944
298.549	0.60995
298.447	0.609915
298.343	0.609866
298.247	0.609792
298.151	0.609643
298.057	0.609466
297.962	0.609227
297.869	0.608938
297.778	0.608582
297.687	0.608196
297.594	0.607811
297.503	0.607442
297.42	0.607128
297.343	0.606889
297.268	0.606729
297.195	0.606656
297.122	0.60665
297.049	0.60643
296.976	0.606529
296.903	0.606708
296.826	0.606928
296.748	0.607185
296.667	0.607447
296.586	0.607819
296.504	0.608076
296.422	0.608296
296.34	0.60847
296.258	0.608578
296.173	0.608613
296.089	0.608577
296.007	0.608448
295.92	0.608225
295.838	0.607916
295.756	0.607523
295.672	0.607049
295.583	0.606535
295.495	0.606007
295.409	0.605535
295.321	0.605057
295.23	0.604606
295.134	0.604235
295.036	0.60396
294.938	0.603951
294.841	0.603814
294.743	0.603698
294.647	0.603608
294.552	0.60355
294.459	0.603495
294.367	0.603451
294.277	0.603409
294.188	0.603386
294.103	0.60339
294.017	0.603435
293.932	0.603489
293.843	0.603556
293.753	0.603615
293.663	0.603872
293.57	0.603993
293.478	0.604097
293.382	0.604201
293.281	0.604331
293.174	0.604487
293.062	0.604607
292.95	0.604702
292.835	0.60478
292.716	0.604839
292.592	0.60489
292.469	0.604947
292.349	0.60501
292.234	0.605083
292.122	0.605158
292.013	0.605224
291.91	0.605281
291.806	0.605319
291.701	0.605343
291.593	0.60547
291.49	0.605482
291.39	0.605468
291.286	0.605459
291.181	0.605442
291.075	0.605473
290.969	0.605495
290.863	0.605484
290.755	0.605442
290.648	0.60533
290.543	0.605191
290.436	0.604998
290.327	0.604749
290.217	0.604438
290.105	0.604082
289.992	0.603695
289.875	0.603277
289.754	0.602833
289.63	0.602408
289.504	0.602006
289.374	0.601616
289.243	0.601289
289.112	0.601022
288.98	0.600685
288.849	0.600493
288.717	0.600386
288.587	0.600303
288.451	0.600219
288.313	0.600135
288.175	0.600067
288.035	0.600003
287.896	0.599949
287.758	0.599909
287.623	0.599896
287.492	0.599877
287.364	0.59986
287.239	0.599816
287.114	0.599768
286.988	0.599593
286.86	0.599493
286.731	0.599396
286.602	0.599307
286.471	0.599528
286.339	0.599506
286.207	0.599465
286.074	0.599438
285.94	0.599413
285.801	0.599406
285.656	0.599412
285.511	0.599454
285.364	0.599542
285.216	0.599681
285.065	0.599879
284.914	0.600099
284.764	0.600405
284.616	0.600755
284.472	0.601133
284.328	0.601507
284.185	0.601919
284.045	0.602364
283.911	0.602822
283.788	0.603274
283.666	0.603635
283.545	0.603964
283.428	0.604195
283.317	0.604298
283.212	0.604247
283.109	0.604084
283.005	0.603806
282.899	0.603456
282.788	0.603053
282.68	0.602596
282.567	0.602136
282.454	0.601676
282.338	0.601247
282.221	0.600848
282.102	0.600413
281.981	0.600106
281.86	0.599858
281.738	0.599679
281.615	0.599559
281.491	0.599344
281.365	0.599312
281.239	0.599316
281.109	0.599342
280.978	0.599342
280.847	0.599331
280.715	0.599292
280.584	0.599219
280.456	0.599107
280.326	0.598956
280.2	0.598767
280.075	0.598526
279.949	0.598243
279.824	0.598046
279.704	0.597772
279.586	0.597482
279.467	0.597228
279.349	0.597023
279.23	0.596842
279.11	0.596626
278.989	0.596562
278.872	0.596573
278.76	0.596623
278.648	0.596719
278.538	0.596837
278.429	0.597004
278.321	0.597221
278.208	0.597479
278.093	0.597797
277.976	0.598162
277.856	0.598557
277.735	0.598954
277.616	0.59937
277.498	0.599763
277.379	0.600131
277.259	0.600495
277.136	0.600833
277.011	0.601119
276.886	0.601349
276.757	0.601547
276.628	0.601651
276.501	0.60167
276.382	0.601603
276.265	0.601469
276.152	0.601255
276.04	0.60098
275.933	0.600664
275.829	0.60031
275.725	0.599923
275.619	0.599514
275.51	0.599105
275.4	0.598794
275.289	0.598422
275.178	0.598091
275.066	0.597814
274.951	0.597627
274.836	0.597504
274.719	0.597571
274.599	0.597616
274.477	0.597678
274.353	0.59777
274.226	0.597859
274.096	0.597956
273.963	0.598054
273.829	0.598135
273.694	0.598199
273.558	0.598231
273.423	0.598239
273.291	0.598204
273.159	0.598128
273.027	0.598004
272.894	0.597834
272.764	0.597667
272.634	0.597435
272.505	0.597207
272.374	0.596978
272.243	0.59681
272.111	0.596629
271.981	0.596447
271.853	0.596249
271.727	0.596066
271.602	0.595901
271.474	0.595782
271.346	0.595736
271.218	0.595761
271.085	0.59586
270.954	0.596049
270.819	0.596295
270.683	0.596577
270.546	0.596914
270.406	0.597213
270.266	0.597515
270.126	0.597799
269.986	0.598085
269.848	0.598302
269.711	0.598546
269.577	0.598645
269.442	0.598678
269.307	0.598641
269.172	0.598536
269.037	0.598358
268.903	0.598123
268.767	0.597842
268.632	0.597506
268.496	0.597137
268.361	0.596742
268.226	0.596331
268.09	0.595823
267.955	0.595429
267.822	0.595091
267.692	0.594795
267.566	0.594591
267.439	0.594466
267.311	0.594309
267.187	0.594305
267.065	0.59438
266.941	0.594474
266.814	0.594579
266.685	0.594713
266.555	0.594814
266.424	0.594904
266.293	0.594963
266.162	0.595001
266.031	0.595002
265.898	0.594969
265.764	0.594891
265.629	0.594718
265.492	0.594578
265.355	0.594406
265.216	0.594225
265.077	0.594039
264.939	0.593913
264.804	0.593804
264.672	0.593719
264.541	0.593666
264.412	0.593619
264.287	0.59359
264.163	0.59359
264.042	0.593632
263.924	0.593714
263.805	0.593843
263.681	0.594011
263.552	0.594211
263.422	0.594448
263.287	0.594828
263.152	0.595102
263.016	0.595361
262.88	0.59562
262.744	0.595899
262.606	0.596216
262.471	0.596496
262.335	0.59666
262.202	0.596857
262.07	0.597002
261.935	0.597068
261.8	0.597033
261.665	0.596906
261.527	0.596685
261.381	0.596373
261.233	0.596003
261.085	0.595567
260.937	0.59511
260.79	0.59462
260.644	0.594278
260.502	0.593774
260.363	0.593278
260.224	0.592828
260.087	0.592438
259.948	0.592133
259.808	0.591923
259.667	0.591788
259.523	0.591728
259.375	0.591707
259.226	0.591746
259.077	0.591794
258.929	0.591859
258.782	0.591904
258.638	0.591964
258.494	0.592019
258.356	0.592087
258.221	0.592141
258.086	0.592188
257.947	0.592268
257.806	0.592303
257.661	0.592327
257.517	0.592368
257.375	0.5924
257.235	0.592492
257.096	0.592607
256.958	0.592702
256.819	0.592856
256.679	0.593003
256.54	0.593154
256.4	0.593304
256.257	0.593443
256.109	0.593596
255.957	0.593768
255.804	0.593976
255.65	0.594219
255.498	0.594493
255.347	0.594818
255.194	0.595177
255.038	0.595586
254.881	0.596026
254.72	0.596484
254.559	0.596947
254.401	0.59742
254.245	0.597968
254.091	0.598369
253.938	0.598683
253.788	0.598905
253.639	0.599008
253.494	0.598997
253.35	0.598882
253.209	0.598646
253.07	0.598317
252.938	0.597943
252.808	0.597528
252.675	0.597088
252.543	0.596632
252.408	0.596117
252.269	0.595672
252.126	0.595264
251.981	0.59493
251.831	0.594665
251.674	0.594528
251.514	0.594571
251.352	0.594677
251.188	0.594894
251.028	0.595216
250.868	0.595628
250.709	0.596065
250.556	0.596529
250.413	0.597001
250.274	0.597469
250.14	0.597925
250.007	0.598352
249.878	0.598744
249.749	0.599091
249.616	0.599483
249.482	0.599759
249.345	0.600004
249.205	0.600238
249.064	0.600452
248.918	0.600535
248.768	0.600732
248.617	0.600938
248.466	0.601138
248.316	0.601316
248.165	0.601453
248.015	0.60161
247.863	0.601747
247.715	0.601896
247.568	0.602071
247.416	0.602277
247.26	0.60254
247.099	0.602878
246.942	0.603247
246.787	0.603688
246.636	0.604178
246.487	0.604766
246.339	0.605358
246.19	0.605986
246.041	0.606455
245.889	0.607089
245.74	0.607706
245.594	0.608263
245.448	0.608752
245.303	0.609151
245.159	0.609435
245.018	0.609649
244.874	0.609782
244.726	0.609845
244.579	0.609836
244.431	0.609778
244.286	0.609729
244.144	0.609631
244.007	0.609512
243.878	0.60943
243.755	0.609389
243.635	0.609418
243.514	0.609503
243.391	0.609608
243.265	0.609815
243.136	0.610089
243.004	0.610408
242.874	0.610754
242.74	0.611078
242.608	0.611408
242.474	0.611754
242.339	0.612105
242.202	0.61246
242.07	0.612832
241.938	0.613172
241.808	0.613573
241.685	0.613947
241.562	0.614328
241.441	0.61472
241.321	0.615129
241.206	0.615579
241.096	0.616031
240.988	0.616484
240.877	0.616907
240.768	0.617322
240.656	0.617724
240.543	0.618133
240.426	0.618541
240.307	0.618972
240.185	0.619436
240.063	0.619947
239.94	0.620509
239.815	0.621087
239.687	0.621769
239.558	0.622533
239.431	0.623379
239.302	0.624279
239.174	0.625202
239.044	0.626135
238.913	0.627061
238.786	0.627974
238.663	0.628916
238.543	0.629752
238.425	0.630526
238.309	0.631198
238.191	0.631776
238.071	0.632209
237.949	0.632511
237.824	0.632664
237.699	0.632677
237.575	0.632561
237.454	0.632351
237.339	0.632079
237.223	0.631766
237.106	0.631465
236.984	0.631203
236.862	0.630997
236.736	0.630869
236.612	0.630815
236.489	0.630843
236.366	0.63086
236.24	0.631046
236.114	0.631311
235.985	0.631658
235.854	0.632083
235.72	0.632575
235.588	0.633125
235.463	0.633731
235.343	0.634575
235.225	0.635319
235.106	0.636091
234.987	0.636921
234.868	0.637838
234.748	0.638812
234.626	0.639846
234.503	0.6409
234.377	0.641967
234.248	0.64301
234.119	0.644052
233.988	0.645049
233.857	0.646019
233.724	0.646922
233.589	0.647817
233.451	0.64868
233.313	0.649537
233.171	0.65039
233.028	0.651264
232.884	0.652276
232.737	0.653254
232.59	0.654309
232.443	0.655455
232.294	0.656662
232.147	0.658007
231.999	0.659507
231.85	0.661092
231.699	0.662747
231.549	0.664423
231.4	0.666166
231.251	0.66794
231.098	0.669692
230.942	0.671408
230.786	0.67307
230.633	0.674676
230.483	0.676217
230.335	0.677705
230.187	0.679242
230.036	0.680612
229.886	0.681938
229.737	0.683255
229.588	0.68459
229.439	0.68593
229.29	0.687313
229.142	0.688731
228.998	0.690156
228.856	0.691623
228.712	0.693096
228.57	0.694642
228.424	0.696222
228.272	0.697823
228.121	0.699443
227.965	0.701075
227.811	0.702729
227.658	0.704449
227.505	0.706192
227.351	0.707994
227.198	0.709875
227.046	0.711862
226.893	0.713866
226.745	0.715937
226.6	0.71804
226.458	0.720175
226.314	0.722324
226.17	0.724508
226.024	0.726645
225.872	0.72875
225.716	0.730816
225.558	0.732863
225.396	0.734855
225.233	0.736902
225.067	0.738988
224.904	0.741114
224.738	0.743329
224.569	0.745644
224.4	0.748054
224.232	0.750568
224.068	0.753187
223.906	0.755896
223.746	0.758689
223.586	0.761584
223.428	0.764544
223.268	0.767561
223.111	0.770611
222.956	0.773687
222.801	0.776781
222.647	0.779865
222.493	0.782826
222.342	0.785862
222.193	0.788866
222.049	0.791859
221.905	0.794846
221.762	0.7978
221.621	0.800786
221.483	0.803771
221.344	0.806745
221.204	0.809711
221.063	0.812711
220.921	0.815769
220.78	0.818908
220.641	0.821946
220.501	0.825238
220.36	0.828649
220.218	0.832144
220.077	0.835709
219.938	0.839324
219.799	0.842963
219.666	0.846713
219.53	0.850465
219.394	0.85428
219.256	0.858189
219.118	0.862201
218.981	0.86632
218.849	0.870541
218.717	0.874872
218.587	0.879294
218.458	0.883781
218.329	0.888317
218.201	0.892889
218.073	0.897375
217.945	0.90195
217.817	0.906499
217.693	0.911007
217.566	0.915492
217.442	0.919875
217.325	0.924171
217.207	0.928477
217.093	0.932812
216.978	0.937193
216.863	0.941658
216.745	0.946258
216.627	0.950922
216.507	0.955695
216.385	0.960536
216.264	0.965454
216.14	0.970428
216.011	0.975426
215.882	0.980334
215.754	0.985364
215.623	0.990403
215.494	0.995427
215.371	1.00041
215.252	1.00537
215.134	1.01035
215.021	1.01522
214.912	1.02009
214.806	1.02495
214.701	1.02981
214.599	1.03469
214.498	1.03956
214.395	1.04443
214.29	1.04928
214.18	1.05408
214.066	1.05885
213.95	1.06357
213.833	1.06829
213.713	1.073
213.594	1.07768
213.471	1.0823
213.346	1.08697
213.219	1.09164
213.095	1.09635
212.972	1.10075
212.848	1.10552
212.721	1.11031
212.594	1.11517
212.466	1.12009
212.334	1.12508
212.199	1.13014
212.059	1.13531
211.92	1.14049
211.779	1.14568
211.638	1.15089
211.498	1.15605
211.356	1.16119
211.215	1.16627
211.076	1.17132
210.94	1.17632
210.805	1.18129
210.668	1.18624
210.532	1.19117
210.399	1.19611
210.264	1.20116
210.132	1.2062
209.999	1.21137
209.867	1.21678
209.731	1.22244
209.594	1.22853
209.455	1.23483
209.313	1.24146
209.169	1.2484
209.022	1.25561
208.873	1.26314
208.723	1.2709
208.572	1.27891
208.423	1.28714
208.275	1.29557
208.127	1.30417
207.98	1.31289
207.834	1.32172
207.687	1.33061
207.541	1.33961
207.397	1.3485
207.254	1.35736
207.11	1.36618
206.966	1.37498
206.822	1.38375
206.681	1.39243
206.543	1.40113
206.407	1.40978
206.272	1.41834
206.141	1.42681
206.009	1.43517
205.875	1.44343
205.745	1.45158
205.613	1.45964
205.477	1.46764
205.339	1.47557
205.198	1.48345
205.053	1.49128
204.906	1.49901
204.76	1.50684
204.613	1.5147
204.465	1.52261
204.318	1.5306
204.168	1.53865
204.019	1.54673
203.871	1.55478
203.723	1.56281
203.572	1.57077
203.422	1.57861
203.271	1.58639
203.116	1.59406
202.964	1.60167
202.809	1.60923
202.654	1.61673
202.494	1.62421
202.331	1.6315
202.168	1.63894
202.004	1.64639
201.839	1.65389
201.677	1.66142
201.515	1.66901
201.36	1.67658
201.21	1.68425
201.059	1.69193
200.913	1.6996
200.767	1.70725
200.621	1.71486
200.475	1.72243
200.327	1.72996
200.176	1.73749
200.02	1.74503
199.862	1.75261
199.703	1.7602
199.543	1.76784
199.38	1.77551
199.221	1.78316
199.061	1.7909
198.905	1.79869
198.749	1.80655
198.595	1.81453
198.441	1.82297
198.289	1.83128
198.14	1.83979
197.991	1.84846
197.844	1.85729
197.699	1.86627
197.554	1.87542
197.41	1.88472
197.265	1.89418
197.117	1.90382
196.968	1.91362
196.82	1.9236
196.671	1.93361
196.522	1.94393
196.37	1.95444
196.215	1.96513
196.062	1.97602
195.91	1.98707
195.763	1.99829
195.616	2.00965
195.469	2.02101
195.321	2.03255
195.174	2.04408
195.027	2.05551
194.879	2.0668
194.731	2.07783
194.583	2.08861
194.435	2.09909
194.287	2.10926
194.141	2.11913
193.997	2.12868
193.854	2.13791
193.711	2.14675
193.569	2.15544
193.427	2.16387
193.286	2.17209
193.144	2.18013
193.003	2.18797
192.864	2.1957
192.724	2.20322
192.586	2.21073
192.447	2.21818
192.31	2.22554
192.173	2.23284
192.036	2.24008
191.902	2.24727
191.767	2.25442
191.634	2.26154
191.502	2.26862
191.371	2.27566
191.243	2.28273
191.114	2.28968
190.985	2.29681
190.856	2.304
190.726	2.31125
190.596	2.31859
190.463	2.32606
190.328	2.33361
190.194	2.3413
190.057	2.34893
189.919	2.35655
189.781	2.36412
189.644	2.37163
189.507	2.37904
189.37	2.38638
189.233	2.39367
189.096	2.40091
188.958	2.4081
188.82	2.41526
188.68	2.42241
188.534	2.42956
188.388	2.43692
188.237	2.4441
188.085	2.45128
187.936	2.45852
187.786	2.46597
187.636	2.47336
187.487	2.48087
187.336	2.48848
187.183	2.4962
187.027	2.50405
186.867	2.51202
186.707	2.52011
186.547	2.52835
186.389	2.53672
186.233	2.54524
186.078	2.55389
185.923	2.56269
185.77	2.57162
185.619	2.58067
185.469	2.58984
185.321	2.59915
185.172	2.60852
185.025	2.61798
184.878	2.62752
184.733	2.63723
184.589	2.64701
184.443	2.65679
184.299	2.66656
184.155	2.67627
184.012	2.68589
183.871	2.69533
183.729	2.70462
183.586	2.71372
183.441	2.72262
183.292	2.73132
183.142	2.73981
182.995	2.74809
182.849	2.75616
182.701	2.76401
182.55	2.77162
182.397	2.77905
182.244	2.78647
182.09	2.79359
181.933	2.8005
181.776	2.80724
181.619	2.81377
181.463	2.82011
181.305	2.82625
181.147	2.83221
180.989	2.83801
180.831	2.84361
180.673	2.84906
180.517	2.85435
180.364	2.85951
180.214	2.86458
180.066	2.86957
179.919	2.87449
179.774	2.87938
179.63	2.88423
179.488	2.88909
179.347	2.89393
179.207	2.89886
179.067	2.9037
178.926	2.90854
178.786	2.91342
178.647	2.91825
178.507	2.92308
178.372	2.92788
178.238	2.93267
178.107	2.93743
177.978	2.94219
177.852	2.94694
177.727	2.9517
177.604	2.95647
177.484	2.96127
177.368	2.96608
177.254	2.97093
177.142	2.97582
177.027	2.9808
176.914	2.9858
176.803	2.991
176.692	2.99609
176.583	3.00123
176.479	3.00637
176.38	3.01153
176.286	3.01665
176.194	3.02177
176.103	3.02686
176.013	3.03194
175.922	3.03701
175.831	3.04208
175.741	3.04713
175.651	3.05219
175.562	3.05726
175.473	3.06235
175.384	3.06747
175.295	3.07262
175.205	3.07792
175.114	3.08314
175.023	3.0884
174.932	3.0935
174.841	3.09885
174.749	3.10428
174.657	3.1097
174.564	3.11513
174.468	3.1205
174.376	3.12574
174.286	3.1309
174.199	3.13592
174.119	3.1408
174.042	3.14556
173.966	3.15017
173.892	3.15468
173.82	3.15905
173.75	3.16344
173.681	3.16758
173.615	3.17163
173.552	3.17559
173.492	3.17946
173.435	3.18323
173.379	3.18686
173.322	3.1904
173.269	3.19384
173.215	3.19714
173.163	3.20029
173.113	3.20322
173.064	3.20604
173.014	3.20871
172.963	3.21124
172.911	3.21364
172.857	3.21593
172.803	3.21813
172.746	3.22024
172.687	3.2223
172.628	3.2243
172.568	3.22625
172.51	3.22816
172.449	3.23
172.389	3.23186
172.331	3.23376
172.273	3.23562
172.217	3.23745
172.156	3.23927
172.096	3.24109
172.036	3.24289
171.977	3.24468
171.918	3.24641
171.856	3.24817
171.793	3.24995
171.728	3.25174
171.662	3.25355
171.594	3.25539
171.526	3.25729
171.457	3.25931
171.386	3.26142
171.312	3.26366
171.237	3.26616
171.16	3.26868
171.08	3.27136
171	3.27415
170.917	3.27711
170.833	3.2802
170.748	3.28342
170.66	3.28675
170.571	3.29014
170.48	3.29364
170.385	3.29722
170.289	3.30083
170.19	3.3045
170.089	3.30821
169.988	3.31193
169.885	3.31568
169.781	3.31941
169.679	3.32313
169.577	3.32682
169.474	3.33048
169.371	3.33413
169.267	3.33771
169.162	3.34124
169.057	3.34472
168.953	3.34815
168.846	3.35151
168.738	3.35479
168.63	3.35802
168.518	3.36114
168.403	3.36418
168.287	3.36715
168.168	3.37005
168.049	3.37287
167.929	3.37565
167.807	3.37839
167.683	3.3811
167.554	3.38377
167.418	3.3864
167.279	3.38904
167.137	3.39166
166.992	3.39429
166.845	3.39682
166.697	3.39947
166.549	3.40212
166.4	3.40475
166.251	3.40738
166.101	3.40998
165.95	3.41257
165.799	3.41514
165.648	3.41771
165.496	3.42026
165.343	3.4228
165.191	3.42531
165.04	3.42782
164.889	3.43031
164.738	3.4328
164.588	3.43525
164.438	3.43775
164.289	3.44008
164.14	3.44254
163.99	3.44499
163.842	3.44743
163.693	3.44988
163.542	3.45231
163.388	3.45475
163.236	3.45723
163.085	3.45969
162.934	3.46217
162.783	3.46468
162.632	3.46726
162.481	3.46988
162.33	3.47258
162.179	3.47536
162.027	3.47821
161.875	3.48113
161.724	3.48411
161.573	3.48709
161.424	3.49019
161.276	3.49336
161.128	3.49659
160.979	3.4999
160.83	3.50334
160.682	3.50677
160.529	3.51023
160.373	3.51371
160.219	3.5172
160.067	3.52069
159.915	3.52417
159.763	3.52764
159.61	3.53113
159.455	3.53466
159.298	3.53816
159.137	3.54164
158.973	3.54512
158.806	3.54856
158.642	3.55197
158.477	3.55536
158.313	3.55863
158.151	3.56181
157.989	3.56487
157.826	3.5677
157.664	3.5705
157.502	3.57318
157.34	3.57574
157.181	3.57813
157.023	3.58037
156.864	3.58246
156.706	3.58441
156.549	3.58623
156.395	3.58794
156.241	3.58949
156.09	3.59103
155.943	3.59232
155.8	3.59379
155.658	3.59525
155.519	3.59672
155.381	3.59821
155.243	3.59974
155.103	3.60129
154.963	3.60288
154.822	3.60446
154.681	3.60611
154.539	3.60776
154.397	3.60941
154.253	3.61105
154.109	3.61267
153.966	3.6142
153.822	3.6158
153.676	3.61743
153.529	3.61908
153.382	3.62076
153.236	3.62248
153.09	3.62424
152.944	3.62609
152.796	3.62792
152.648	3.62983
152.5	3.63178
152.353	3.63379
152.207	3.6358
152.064	3.63778
151.919	3.63979
151.774	3.64175
151.627	3.64369
151.478	3.64558
151.328	3.64744
151.177	3.64924
151.026	3.65097
150.876	3.65269
150.726	3.65435
150.577	3.656
150.43	3.65749
150.284	3.65909
150.137	3.66072
149.988	3.66235
149.839	3.664
149.69	3.66567
149.542	3.66737
149.395	3.66906
149.253	3.67078
149.115	3.67251
148.978	3.67421
148.838	3.67587
148.699	3.67747
148.561	3.67905
148.423	3.68058
148.287	3.68204
148.154	3.68346
148.025	3.68481
147.898	3.6861
147.771	3.68732
147.643	3.68843
147.514	3.68952
147.383	3.69055
147.249	3.69145
147.112	3.69243
146.975	3.6934
146.838	3.69442
146.699	3.6954
146.56	3.69638
146.421	3.69735
146.28	3.69831
146.142	3.69922
146.002	3.70013
145.864	3.70102
145.726	3.70189
145.59	3.70274
145.455	3.70358
145.321	3.70439
145.186	3.70517
145.054	3.70593
144.92	3.70657
144.787	3.70728
144.656	3.70798
144.526	3.70861
144.394	3.70933
144.264	3.71005
144.136	3.71075
144.007	3.71149
143.878	3.71226
143.749	3.71306
143.621	3.71385
143.492	3.71468
143.364	3.71549
143.236	3.71632
143.11	3.71715
142.982	3.718
142.855	3.71885
142.728	3.7197
142.602	3.72055
142.477	3.72153
142.35	3.72246
142.222	3.72333
142.094	3.72439
141.965	3.72524
141.837	3.7261
141.711	3.72693
141.585	3.72773
141.462	3.72852
141.339	3.7293
141.217	3.73006
141.096	3.73081
140.976	3.73155
140.856	3.7323
140.735	3.73305
140.612	3.73382
140.487	3.73461
140.36	3.73567
140.234	3.73647
140.108	3.73727
139.982	3.73806
139.855	3.73884
139.728	3.7396
139.601	3.74034
139.473	3.74104
139.344	3.74176
139.216	3.74242
139.089	3.74303
138.962	3.74359
138.836	3.74411
138.708	3.7446
138.58	3.74504
138.451	3.74546
138.321	3.74586
138.189	3.74626
138.058	3.74669
137.925	3.7471
137.794	3.74754
137.663	3.74801
137.534	3.7485
137.408	3.74902
137.283	3.74971
137.158	3.75027
137.033	3.75079
136.91	3.75127
136.785	3.75169
136.659	3.75205
136.533	3.75234
136.405	3.75253
136.275	3.75267
136.144	3.75286
136.009	3.75289
135.874	3.75292
135.738	3.75294
135.602	3.75299
135.462	3.75303
135.326	3.75311
135.188	3.75324
135.049	3.7534
134.912	3.75361
134.774	3.75385
134.637	3.75419
134.498	3.75453
134.361	3.75488
134.225	3.75533
134.09	3.75567
133.956	3.75598
133.822	3.75624
133.689	3.75646
133.556	3.75664
133.42	3.75677
133.282	3.75668
133.141	3.75678
133	3.75685
132.855	3.75693
132.71	3.75702
132.565	3.75713
132.42	3.75729
132.275	3.75746
132.13	3.7577
131.987	3.75798
131.845	3.75838
131.703	3.75872
131.562	3.75909
131.421	3.75951
131.283	3.75986
131.147	3.76021
131.008	3.76053
130.869	3.76083
130.729	3.76105
130.589	3.76127
130.452	3.76148
130.315	3.76167
130.177	3.76186
130.038	3.76204
129.899	3.76231
129.757	3.76254
129.615	3.76278
129.472	3.76304
129.327	3.76331
129.183	3.76346
129.038	3.76375
128.893	3.76404
128.747	3.76433
128.6	3.76461
128.454	3.76485
128.307	3.7651
128.158	3.76535
128.01	3.76562
127.861	3.76585
127.711	3.76609
127.561	3.76632
127.412	3.76656
127.264	3.7668
127.118	3.76703
126.973	3.76725
126.827	3.76745
126.682	3.76746
126.537	3.76767
126.392	3.76788
126.249	3.76809
126.106	3.76831
125.962	3.76853
125.82	3.76878
125.68	3.76901
125.54	3.7691
125.403	3.76933
125.266	3.76959
125.128	3.76988
124.992	3.7702
124.855	3.77056
124.718	3.77093
124.582	3.77131
124.446	3.7717
124.31	3.77207
124.175	3.7724
124.039	3.77274
123.904	3.77304
123.767	3.77327
123.63	3.77348
123.494	3.77367
123.356	3.7738
123.22	3.77379
123.082	3.774
122.945	3.77422
122.81	3.77447
122.677	3.77475
122.546	3.77508
122.414	3.77544
122.284	3.7758
122.155	3.77612
122.025	3.77657
121.895	3.777
121.765	3.77744
121.634	3.77782
121.5	3.7782
121.365	3.77852
121.229	3.77877
121.093	3.77892
120.958	3.77906
120.819	3.77919
120.678	3.7793
120.539	3.7794
120.399	3.77952
120.26	3.77966
120.123	3.77986
119.985	3.78014
119.847	3.78042
119.708	3.78071
119.571	3.78101
119.434	3.78131
119.299	3.78179
119.164	3.78208
119.03	3.78237
118.894	3.78262
118.757	3.78286
118.62	3.78306
118.482	3.7832
118.343	3.78328
118.206	3.78337
118.067	3.78346
117.931	3.78354
117.796	3.78364
117.66	3.78378
117.526	3.78392
117.394	3.78408
117.261	3.78428
117.129	3.78448
116.996	3.7847
116.863	3.78495
116.729	3.78516
116.595	3.78538
116.461	3.78558
116.326	3.78575
116.189	3.78581
116.051	3.78582
115.913	3.78588
115.775	3.78593
115.637	3.78598
115.499	3.78602
115.36	3.78609
115.221	3.78618
115.083	3.78629
114.945	3.7864
114.807	3.78653
114.671	3.78668
114.537	3.78685
114.402	3.78705
114.266	3.78721
114.128	3.7874
113.99	3.78763
113.851	3.78786
113.711	3.78807
113.572	3.78829
113.433	3.78851
113.295	3.78874
113.156	3.78898
113.019	3.78923
112.883	3.78954
112.747	3.78979
112.611	3.79001
112.475	3.79021
112.339	3.79034
112.203	3.79048
112.067	3.79062
111.932	3.79087
111.797	3.791
111.663	3.79111
111.527	3.79119
111.392	3.79124
111.255	3.79131
111.119	3.7914
110.984	3.7915
110.848	3.7916
110.714	3.79173
110.579	3.79186
110.445	3.79201
110.311	3.79216
110.179	3.79233
110.044	3.79247
109.91	3.79259
109.774	3.7927
109.638	3.79293
109.501	3.79294
109.362	3.79291
109.225	3.79286
109.088	3.79294
108.949	3.79287
108.811	3.79279
108.673	3.79278
108.537	3.79275
108.402	3.79277
108.267	3.79283
108.134	3.7929
108	3.79303
107.866	3.79321
107.731	3.7934
107.597	3.79361
107.462	3.79389
107.327	3.79412
107.193	3.79435
107.06	3.79454
106.925	3.7947
106.789	3.7948
106.652	3.79487
106.515	3.79485
106.378	3.79475
106.239	3.7947
106.1	3.79467
105.964	3.79467
105.826	3.79472
105.691	3.79484
105.556	3.79498
105.421	3.79517
105.286	3.79539
105.152	3.79565
105.018	3.79593
104.884	3.79623
104.75	3.79658
104.615	3.79685
104.479	3.79708
104.341	3.7973
104.203	3.79745
104.065	3.79751
103.929	3.79757
103.795	3.79762
103.662	3.79761
103.53	3.7976
103.397	3.79768
103.265	3.79772
103.131	3.79779
102.997	3.79786
102.864	3.79797
102.729	3.79809
102.593	3.79831
102.459	3.79849
102.324	3.79867
102.187	3.79885
102.052	3.79901
101.916	3.79914
101.779	3.79924
101.642	3.7993
101.505	3.79936
101.371	3.79941
101.237	3.79945
101.104	3.79948
100.971	3.79952
100.838	3.79952
100.705	3.79953
100.572	3.79951
100.44	3.79944
100.308	3.79936
100.174	3.7993
100.04	3.79922
99.9074	3.79914
99.7743	3.79905
99.6415	3.799
99.5092	3.79894
99.3771	3.79882
99.2455	3.79877
99.1135	3.79873
98.9801	3.79871
98.8484	3.79876
98.7172	3.79881
98.5871	3.79883
98.4567	3.79887
98.3264	3.79889
98.1978	3.79888
98.0682	3.79887
97.9382	3.79888
97.8076	3.79885
97.676	3.79879
97.5452	3.79873
97.4132	3.79851
97.2814	3.79842
97.1495	3.79834
97.0169	3.79828
96.8848	3.79823
96.7527	3.79821
96.6212	3.79824
96.4891	3.7983
96.3576	3.79839
96.227	3.79853
96.0977	3.79867
95.9686	3.79883
95.8412	3.79899
95.7127	3.79899
95.5849	3.79912
95.4565	3.79922
95.3277	3.79927
95.1969	3.79907
95.0652	3.79909
94.9322	3.79906
94.7987	3.79904
94.6659	3.799
94.5327	3.79897
94.4003	3.79897
94.2674	3.79903
94.1342	3.79913
94.001	3.79931
93.8655	3.79946
93.7299	3.7997
93.5927	3.79997
93.4555	3.80027
93.3179	3.80057
93.1806	3.8009
93.0422	3.8012
92.9038	3.80146
92.7662	3.80172
92.6275	3.8019
92.4877	3.80204
92.3477	3.80212
92.2073	3.80219
92.0672	3.80224
91.9258	3.8023
91.7858	3.80237
91.6458	3.80239
91.5053	3.80247
91.3643	3.80257
91.2229	3.80269
91.082	3.80284
90.9416	3.80298
90.8011	3.80315
90.6597	3.80332
90.517	3.80348
90.3736	3.80361
90.2288	3.80375
90.0847	3.80385
89.9412	3.80384
89.7954	3.80385
89.6501	3.80383
89.5053	3.80379
89.3604	3.8038
89.2153	3.80373
89.0702	3.80365
88.9249	3.80363
88.782	3.80362
88.6368	3.80362
88.4928	3.80365
88.3467	3.80371
88.2009	3.80379
88.0552	3.80387
87.906	3.80395
87.7561	3.80387
87.6083	3.80396
87.4616	3.80404
87.3166	3.80409
87.1721	3.80416
87.0285	3.80424
86.8855	3.80436
86.7423	3.80448
86.5991	3.80459
86.4562	3.80471
86.3135	3.80477
86.1709	3.80486
86.0285	3.80493
85.8863	3.80495
85.745	3.80497
85.6032	3.80499
85.4609	3.805
85.3183	3.80501
85.1748	3.80499
85.0317	3.805
84.8872	3.80497
84.7437	3.80499
84.6018	3.80503
84.4593	3.80509
84.3175	3.80519
84.1762	3.80531
84.0338	3.80542
83.8927	3.80555
83.7513	3.80567
83.6102	3.80578
83.4695	3.80601
83.3287	3.806
83.1879	3.80605
83.0476	3.80609
82.9087	3.80612
82.7702	3.80613
82.6315	3.80611
82.4926	3.80613
82.3526	3.80615
82.2126	3.80617
82.0716	3.80623
81.9319	3.80632
81.7923	3.80645
81.6535	3.80659
81.5154	3.80678
81.3769	3.807
81.2397	3.80724
81.1043	3.80771
80.9694	3.8079
80.8349	3.80809
80.7003	3.80826
80.5659	3.80838
80.4308	3.80851
80.2942	3.80835
80.158	3.80833
80.0223	3.80829
79.8851	3.80822
79.7479	3.80818
79.6116	3.80811
79.4754	3.80805
79.3381	3.80802
79.2018	3.80803
79.0657	3.8081
78.9298	3.8082
78.7945	3.80833
78.6606	3.80844
78.528	3.80858
78.3957	3.80871
78.2617	3.80881
78.1291	3.80888
77.9947	3.80893
77.8621	3.80882
77.7294	3.80877
77.5953	3.80875
77.4637	3.80868
77.3335	3.8086
77.2007	3.80852
77.068	3.80847
76.9344	3.80845
76.7988	3.80844
76.6644	3.80844
76.5296	3.80849
76.3954	3.80859
76.26	3.80871
76.1242	3.80885
75.9892	3.809
75.8557	3.80915
75.7219	3.80929
75.5864	3.80942
75.4497	3.80952
75.3121	3.80962
75.1748	3.8097
75.0378	3.80972
74.9004	3.80973
74.7623	3.80971
74.6256	3.80968
74.4888	3.80966
74.3524	3.80962
74.2163	3.80963
74.0793	3.80967
73.9423	3.80991
73.8078	3.80997
73.6712	3.81006
73.5352	3.81015
73.4005	3.81022
73.2673	3.8103
73.1351	3.81036
73.0011	3.81039
72.8663	3.81045
72.7314	3.8105
72.5971	3.81059
72.4637	3.81065
72.3297	3.81073
72.1988	3.81081
72.0663	3.81091
71.933	3.81103
71.7999	3.81105
71.6665	3.81111
71.5327	3.81119
71.399	3.81123
71.2652	3.81127
71.1295	3.81132
70.9906	3.81135
70.851	3.81137
70.7102	3.8114
70.5691	3.81136
70.4277	3.81137
70.2875	3.81138
70.1489	3.81139
70.01	3.81142
69.8723	3.81145
69.7357	3.8116
69.599	3.81167
69.4629	3.81176
69.3276	3.81185
69.1923	3.81195
69.0575	3.81205
68.9218	3.81209
68.7863	3.81208
68.6493	3.81204
68.5116	3.81197
68.3723	3.81189
68.2318	3.81171
68.0931	3.81158
67.9545	3.81146
67.8157	3.81136
67.6741	3.81128
67.5301	3.81123
67.3828	3.81121
67.2323	3.81123
67.0788	3.81128
66.9263	3.81136
66.7728	3.8114
66.6194	3.8117
66.4677	3.81181
66.3125	3.81189
66.1572	3.81195
66.0012	3.81197
65.8468	3.81199
65.6924	3.81192
65.5356	3.81182
65.3775	3.81168
65.2213	3.81174
65.066	3.81158
64.9118	3.81141
64.7586	3.81125
64.6059	3.81113
64.4528	3.81105
64.3016	3.811
64.1519	3.81108
64.0026	3.81114
63.8531	3.8113
63.7026	3.81139
63.551	3.81147
63.4006	3.81155
63.2495	3.8116
63.0957	3.81161
62.9424	3.81158
62.7876	3.81151
62.6305	3.8114
62.4708	3.81129
62.3102	3.81114
62.1499	3.81097
61.9914	3.81076
61.8332	3.81055
61.6751	3.81035
61.5166	3.81018
61.3591	3.81005
61.1989	3.80995
61.0393	3.80984
60.8817	3.80983
60.7247	3.80985
60.5691	3.80988
60.4156	3.80991
60.2629	3.80996
60.1097	3.80999
59.959	3.81003
59.8102	3.81004
59.6635	3.81
59.5193	3.80994
59.3758	3.80982
59.2318	3.80969
59.0842	3.80957
58.9364	3.80942
58.7889	3.8093
58.6405	3.80908
58.4943	3.80895
58.3523	3.80887
58.2091	3.80879
58.0663	3.80876
57.9262	3.80872
57.7867	3.80871
57.6487	3.80869
57.5127	3.80868
57.379	3.80867
57.2461	3.80866
57.1145	3.80873
56.9844	3.80877
56.8535	3.80881
56.7217	3.80887
56.5876	3.80887
56.4571	3.80892
56.3306	3.80901
56.2085	3.80911
56.0868	3.80902
55.9665	3.80918
55.846	3.80933
55.7277	3.8095
55.6106	3.80974
55.495	3.81003
55.3839	3.81035
55.2756	3.81068
55.166	3.81103
55.0574	3.81137
54.9493	3.8117
54.8427	3.812
54.7373	3.81231
54.6332	3.81263
54.5312	3.81294
54.4303	3.81326
54.3278	3.81357
54.2233	3.81386
54.1168	3.81421
54.0056	3.81451
53.8928	3.81474
53.7788	3.81493
53.6634	3.81512
53.5431	3.81528
53.4239	3.81541
53.3067	3.81552
53.1878	3.81562
53.0694	3.8157
52.9522	3.81579
52.8365	3.81588
52.7219	3.8161
52.6086	3.81615
52.496	3.81618
52.3852	3.81623
52.2752	3.81624
52.1658	3.81635
52.058	3.81641
51.9491	3.81647
51.8417	3.81625
51.7374	3.8162
51.636	3.81613
51.5354	3.81603
51.4358	3.81589
51.3387	3.8157
51.2404	3.81549
51.1417	3.81517
51.0432	3.81491
50.9414	3.81466
50.8399	3.81444
50.7366	3.81445
50.6335	3.81429
50.5301	3.81418
50.428	3.81412
50.3289	3.8141
50.2311	3.81412
50.1349	3.81416
50.0412	3.81422
49.9483	3.81431
49.8563	3.81438
49.7683	3.8145
49.6827	3.81461
49.5962	3.81472
49.5108	3.81481
49.4252	3.81488
49.3372	3.81493
49.2487	3.81495
49.1606	3.81495
49.0729	3.81493
48.9839	3.8149
48.8953	3.81486
48.8071	3.81483
48.7218	3.8148
48.6359	3.81477
48.5484	3.81476
48.4603	3.81475
48.376	3.81475
48.2931	3.81482
48.2117	3.81494
48.1289	3.81514
48.0467	3.81541
47.9641	3.81577
47.88	3.81624
47.7933	3.81668
47.7107	3.81712
47.628	3.81758
47.5462	3.81801
47.4683	3.81844
47.3901	3.81886
47.311	3.81925
47.232	3.81963
47.1515	3.81999
47.0734	3.82032
46.9978	3.82063
46.9244	3.82092
46.8551	3.82123
46.7872	3.82149
46.7209	3.82179
46.6573	3.82203
46.602	3.82225
46.5499	3.82246
46.4966	3.82284
46.4483	3.82302
46.4025	3.82318
46.3562	3.82327
46.3079	3.8233
46.2608	3.82323
46.2141	3.8231
46.1677	3.8229
46.1212	3.82265
46.0722	3.82234
46.0212	3.82196
45.9691	3.82154
45.9202	3.82106
45.8719	3.82054
45.8246	3.81999
45.7763	3.81941
45.7271	3.8188
45.677	3.81818
45.6255	3.81756
45.5743	3.81693
45.5235	3.81634
45.4759	3.81576
45.4319	3.81516
45.3879	3.81459
45.3428	3.81408
45.2964	3.81362
45.251	3.81322
45.206	3.81288
45.1635	3.81261
45.1214	3.81241
45.0783	3.81215
45.0347	3.81215
44.9886	3.81227
44.9395	3.81247
44.8877	3.81276
44.8342	3.81306
44.7809	3.81345
44.7269	3.81387
44.6743	3.81432
44.6224	3.81481
44.5699	3.8153
44.5196	3.81582
44.4688	3.81633
44.4207	3.81685
44.372	3.81735
44.3244	3.81783
44.2783	3.81832
44.2332	3.81879
44.1916	3.81923
44.1515	3.81941
44.1116	3.81977
44.0732	3.82004
44.0359	3.82026
43.9992	3.82042
43.9617	3.82051
43.9239	3.82058
43.8863	3.82059
43.8517	3.82058
43.8152	3.82055
43.7796	3.82049
43.7437	3.82043
43.7041	3.82035
43.6634	3.82029
43.6219	3.82023
43.5796	3.82018
43.5364	3.82016
43.4934	3.82014
43.4506	3.82013
43.4102	3.82007
43.3702	3.82007
43.3302	3.82009
43.2894	3.82011
43.2489	3.82017
43.2059	3.82022
43.1608	3.82029
43.1157	3.82037
43.0687	3.8204
43.02	3.82038
42.9754	3.82028
42.9335	3.82011
42.8917	3.81985
42.85	3.81955
42.8065	3.8192
42.7635	3.81883
42.7247	3.81842
42.6876	3.818
42.6516	3.81759
42.6137	3.81716
42.5753	3.81676
42.5375	3.81639
42.4971	3.81604
42.4587	3.81573
42.4242	3.81546
42.3869	3.81532
42.3508	3.81512
42.3149	3.81501
42.2764	3.81495
42.2398	3.81491
42.2022	3.81486
42.1689	3.81482
42.1363	3.81479
42.1034	3.81475
42.0695	3.81472
42.0337	3.81469
41.9967	3.81467
41.9598	3.81467
41.9203	3.8147
41.8813	3.81476
41.8421	3.81485
41.8018	3.81499
41.76	3.81519
41.7179	3.81544
41.6761	3.81574
41.6339	3.81607
41.5927	3.81646
41.5521	3.81685
41.5112	3.81728
41.4715	3.81776
41.4315	3.81811
41.3903	3.81858
41.3506	3.81908
41.3117	3.81962
41.2738	3.82028
41.2353	3.8209
41.1977	3.82149
41.1603	3.82203
41.1231	3.82252
41.0857	3.82294
41.0497	3.82328
41.014	3.82355
40.9792	3.82371
40.9444	3.82377
40.9076	3.82371
40.8709	3.82353
40.8334	3.82324
40.7948	3.82287
40.755	3.82241
40.7179	3.82189
40.6806	3.82134
40.6447	3.82076
40.6114	3.82017
40.5782	3.81957
40.5454	3.81893
40.5113	3.81836
40.4781	3.81782
40.444	3.81735
40.4105	3.81686
40.3772	3.81644
40.344	3.81606
40.3093	3.81575
40.2739	3.81549
40.2403	3.8153
40.2086	3.81515
40.1755	3.81504
40.1434	3.815
40.1121	3.81496
40.0819	3.81498
40.0528	3.81502
40.0244	3.81508
39.9939	3.81517
39.9642	3.81525
39.9334	3.81535
39.9047	3.81543
39.8751	3.81551
39.8449	3.81558
39.818	3.81564
39.7895	3.8157
39.7584	3.81576
39.7296	3.81585
39.6997	3.81592
39.6698	3.81598
39.6418	3.81607
39.6125	3.81613
39.5838	3.81622
39.554	3.81632
39.5241	3.81644
39.4968	3.81658
39.4708	3.81676
39.445	3.81697
39.4203	3.81721
39.3969	3.81748
39.3752	3.81777
39.3534	3.81807
39.3309	3.81836
39.3098	3.81867
39.2897	3.81899
39.2696	3.81928
39.2495	3.8196
39.2302	3.81987
39.2112	3.82012
39.1937	3.82035
39.1759	3.82054
39.1578	3.8207
39.1397	3.82082
39.1241	3.82089
39.1097	3.82088
39.0916	3.82085
39.0724	3.82082
39.0534	3.82077
39.0318	3.82071
39.0081	3.82055
38.9825	3.82048
38.9566	3.82039
38.9282	3.8203
38.8995	3.82024
38.8694	3.82019
38.8376	3.82017
38.8053	3.82016
38.7739	3.82017
38.7442	3.82021
38.717	3.82024
38.6926	3.82029
38.6678	3.82031
38.6439	3.82031
38.6185	3.82028
38.5924	3.82024
38.5668	3.82017
38.5427	3.82003
38.5194	3.82
38.4972	3.81968
38.4769	3.8194
38.458	3.81908
38.4399	3.81864
38.4235	3.8182
38.4106	3.81776
38.3993	3.81732
38.3887	3.81687
38.3759	3.81643
38.3624	3.816
38.3451	3.81558
38.3247	3.81519
38.3019	3.81485
38.2786	3.81453
38.2519	3.81427
38.2241	3.81407
38.1955	3.81392
38.1673	3.81384
38.1367	3.81383
38.1082	3.81387
38.0792	3.81399
38.051	3.81414
38.0244	3.81433
37.998	3.81459
37.9722	3.81481
37.9463	3.81504
37.9214	3.81526
37.8958	3.81547
37.8709	3.81564
37.8462	3.81578
37.8219	3.81595
37.7986	3.81607
37.7738	3.81617
37.7518	3.81626
37.7301	3.81635
37.7098	3.81642
37.6893	3.8165
37.669	3.81657
37.6511	3.81663
37.6332	3.81669
37.6158	3.81674
37.5989	3.81679
37.5818	3.81684
37.5658	3.8169
37.5508	3.81695
37.5356	3.81701
37.5186	3.81709
37.5009	3.81718
37.4837	3.81728
37.4664	3.81743
37.4501	3.81757
37.4326	3.8177
37.418	3.81791
37.4034	3.81802
37.3862	3.81811
37.3697	3.8182
37.3548	3.8183
37.3398	3.81839
37.3217	3.81845
37.3032	3.81849
37.2848	3.8185
37.2684	3.81849
37.2536	3.81846
37.239	3.81842
37.2239	3.81837
37.2067	3.81831
37.1883	3.81823
37.1701	3.81816
37.1531	3.81809
37.1352	3.81802
37.1185	3.81795
37.1032	3.81788
37.0878	3.81781
37.0709	3.81774
37.0547	3.81758
37.0365	3.81748
37.0179	3.81766
36.9991	3.81759
36.9788	3.81753
36.9601	3.8175
36.9396	3.8175
36.9191	3.81761
36.8992	3.81766
36.8793	3.81774
36.8583	3.81785
36.8411	3.81795
36.8265	3.81803
36.8136	3.81809
36.8027	3.81813
36.7978	3.81815
36.7922	3.81813
36.7869	3.8181
36.7807	3.81804
36.7744	3.81799
36.7663	3.81795
36.7553	3.81791
36.7441	3.81788
36.7346	3.81786
36.7225	3.81783
36.7102	3.81782
36.699	3.81795
36.6878	3.81798
36.6779	3.818
36.6681	3.81797
36.6625	3.81799
36.6563	3.81801
36.6505	3.81805
36.6447	3.81803
36.6356	3.81808
36.6279	3.81817
36.6189	3.81829
36.6097	3.81846
36.6015	3.81862
36.5925	3.81883
36.5856	3.81903
36.5785	3.81922
36.5694	3.81939
36.5608	3.81955
36.553	3.81967
36.5402	3.81976
36.5267	3.81982
36.5121	3.81986
36.4972	3.81987
36.4818	3.81987
36.4666	3.81986
36.4509	3.81983
36.4346	3.81977
36.419	3.81971
36.4043	3.81981
36.3918	3.81972
36.3806	3.81958
36.3705	3.81947
36.3631	3.81936
36.3587	3.81927
36.3571	3.81918
36.3562	3.8191
36.3546	3.81901
36.3528	3.81893
36.354	3.81887
36.3546	3.81884
36.3567	3.81883
36.3594	3.81886
36.3615	3.8189
36.3622	3.81897
36.3641	3.81907
36.3655	3.81918
36.3662	3.8193
36.3677	3.8194
36.3674	3.8195
36.3674	3.81958
36.3671	3.81963
36.3664	3.81967
36.3652	3.8196
36.3641	3.81962
36.3611	3.81962
36.3582	3.81961
36.3536	3.81957
36.3476	3.81951
36.3427	3.81944
36.3384	3.81937
36.3327	3.8193
36.3276	3.81924
36.3224	3.81917
36.3154	3.81912
36.305	3.81907
36.2962	3.81903
36.2881	3.81896
36.2814	3.81892
36.2753	3.81889
36.2706	3.81889
36.2672	3.81889
36.2634	3.81893
36.2564	3.81901
36.2511	3.81911
36.2459	3.81923
36.2397	3.81939
36.2324	3.81928
36.2229	3.81941
36.2117	3.81951
36.1966	3.81957
36.1814	3.81959
36.1661	3.81976
36.1512	3.8197
36.1385	3.8196
36.125	3.81947
36.1132	3.81934
36.0999	3.81923
36.0873	3.81909
36.0764	3.81895
36.0637	3.8188
36.0517	3.81864
36.0419	3.81848
36.0324	3.81831
36.0216	3.81814
36.0138	3.81797
36.0065	3.81781
36.0012	3.81767
35.9962	3.81754
35.9924	3.81744
35.9895	3.81737
35.9876	3.81733
35.9868	3.81732
35.9858	3.81734
35.9841	3.81745
35.9821	3.81752
35.9793	3.81759
35.9754	3.81765
35.9701	3.81782
35.9639	3.8179
35.9567	3.81795
35.9487	3.81791
35.9396	3.81791
35.9318	3.81792
35.9221	3.81791
35.9128	3.81789
35.9038	3.81786
35.896	3.81782
35.8874	3.81779
35.8798	3.81775
35.8712	3.81771
35.8648	3.81765
35.8583	3.81761
35.8513	3.81757
35.8457	3.81752
35.8399	3.81747
35.8333	3.81743
35.8272	3.81739
35.8206	3.81735
35.8146	3.81713
35.8082	3.81709
35.8016	3.81705
35.7949	3.81698
35.7884	3.81692
35.7819	3.81683
35.7758	3.81673
35.7693	3.81663
35.7622	3.81655
35.7555	3.81647
35.7492	3.81639
35.7417	3.81631
35.7359	3.81625
35.7291	3.81619
35.7204	3.81617
35.7141	3.81617
35.7085	3.81618
35.703	3.81621
35.6971	3.81626
35.6921	3.81635
35.6871	3.81645
35.6843	3.81657
35.683	3.81673
35.6821	3.8169
35.6835	3.81709
35.6866	3.81729
35.6906	3.81749
35.6954	3.81768
35.7011	3.81784
35.707	3.818
35.7132	3.81813
35.72	3.81825
35.725	3.81835
35.7326	3.81842
35.7397	3.81848
35.7449	3.81852
35.7527	3.81854
35.7611	3.81855
35.7704	3.81858
35.7795	3.81856
35.7894	3.81854
35.8008	3.8185
35.8148	3.81845
35.8303	3.81839
35.8487	3.81832
35.8692	3.81825
35.8905	3.81817
35.911	3.81809
35.9332	3.81803
35.9568	3.81796
35.9822	3.81789
36.0085	3.81782
36.0364	3.81774
36.0655	3.81747
36.0966	3.8174
36.1295	3.81731
36.1631	3.8172
36.1989	3.81706
36.2367	3.8169
36.2752	3.81672
36.3148	3.81654
36.3561	3.81637
36.3986	3.8162
36.4426	3.81602
36.4865	3.81587
36.5323	3.81574
36.581	3.81562
36.6306	3.81554
36.682	3.81548
36.7362	3.81545
36.7938	3.81544
36.8527	3.81542
36.9139	3.81546
36.9783	3.81544
37.0453	3.8154
37.1139	3.81533
37.1822	3.81533
37.2534	3.81527
37.3264	3.8152
37.3996	3.8151
37.4743	3.815
37.5501	3.81491
37.627	3.81488
37.7048	3.81477
37.7838	3.81466
37.865	3.81457
37.9481	3.81452
38.0311	3.8145
38.1155	3.81453
38.201	3.8146
38.2847	3.81472
38.3682	3.81489
38.4531	3.8151
38.5401	3.81536
38.6276	3.81567
38.7177	3.81602
38.8066	3.81642
38.8952	3.81685
38.986	3.81729
39.0757	3.81775
39.1661	3.8182
39.2557	3.81863
39.3463	3.81904
39.4362	3.81943
39.5263	3.81979
39.6149	3.82013
39.7031	3.82045
39.7908	3.82073
39.8778	3.82101
39.9654	3.82123
40.0543	3.82143
40.143	3.82161
40.2326	3.82174
40.3234	3.82184
40.4154	3.8219
40.5081	3.82191
40.6005	3.82182
40.6928	3.82177
40.7859	3.82171
40.8775	3.82162
40.9672	3.82152
41.0576	3.82139
41.1478	3.82122
41.2374	3.82103
41.3283	3.82081
41.4188	3.82057
41.5113	3.82032
41.6043	3.82005
41.6973	3.81978
41.791	3.81949
41.8848	3.8192
41.9797	3.81892
42.0742	3.81862
42.1692	3.81832
42.2634	3.81802
42.3576	3.81771
42.4511	3.8174
42.5444	3.81709
42.6381	3.81675
42.734	3.81643
42.827	3.81609
42.9193	3.81574
43.0086	3.81536
43.0968	3.81497
43.1835	3.81457
43.2679	3.81414
43.3528	3.81374
43.4383	3.81338
43.5226	3.81304
43.6046	3.81276
43.6868	3.81249
43.7711	3.8123
43.8537	3.81213
43.9362	3.81201
44.0184	3.81193
44.1012	3.81191
44.184	3.81193
44.2671	3.812
44.3494	3.8121
44.4323	3.81225
44.5155	3.81244
44.5988	3.81266
44.6815	3.81292
44.7652	3.81321
44.8498	3.81352
44.937	3.81384
45.0253	3.81418
45.1134	3.81452
45.2003	3.81485
45.2891	3.81518
45.3751	3.81549
45.4602	3.81579
45.5462	3.81604
45.6326	3.81633
45.7196	3.81663
45.8072	3.81691
45.8966	3.81712
45.9851	3.81736
46.0748	3.8176
46.1656	3.81785
46.2574	3.81811
46.3507	3.81837
46.4459	3.81863
46.5414	3.8189
46.6361	3.81915
46.7308	3.81937
46.8255	3.81954
46.9211	3.81967
47.0159	3.81975
47.1101	3.81976
47.2044	3.81972
47.2985	3.81963
47.3918	3.81949
47.4847	3.81927
47.5772	3.81901
47.6698	3.81872
47.7614	3.81837
47.8539	3.81802
47.9445	3.81766
48.034	3.8173
48.1224	3.81698
48.208	3.81669
48.2936	3.81645
48.3792	3.81626
48.464	3.81608
48.5481	3.81595
48.6329	3.81583
48.7186	3.81574
48.8054	3.8154
48.894	3.81535
48.9829	3.8153
49.0742	3.81527
49.1644	3.81525
49.2529	3.81523
49.3404	3.81519
49.4307	3.81516
49.5207	3.81519
49.6146	3.81513
49.71	3.81504
49.8061	3.81491
49.9031	3.81476
49.9984	3.81459
50.0935	3.81441
50.1868	3.81424
50.2814	3.81405
50.3742	3.81388
50.4683	3.8137
50.5626	3.81351
50.6581	3.81335
50.7548	3.81319
50.8518	3.81304
50.9481	3.81291
51.0455	3.8128
51.1449	3.81272
51.2434	3.81265
51.3429	3.81261
51.4447	3.8126
51.5485	3.81262
51.653	3.81268
51.7589	3.81277
51.8641	3.81294
51.9693	3.81315
52.0751	3.81344
52.1822	3.81379
52.2892	3.81419
52.3974	3.81469
52.5097	3.8152
52.6212	3.81573
52.7316	3.81624
52.8461	3.81675
52.9609	3.81725
53.0756	3.81772
53.1924	3.81817
53.3091	3.81859
53.4254	3.81897
53.542	3.8193
53.6583	3.81958
53.7739	3.81982
53.89	3.82001
54.0069	3.82016
54.1237	3.82026
54.2396	3.82032
54.3549	3.82034
54.4711	3.82031
54.589	3.82024
54.7074	3.82013
54.8271	3.82
54.9465	3.81984
55.0666	3.81967
55.1878	3.8195
55.3077	3.81933
55.429	3.81911
55.5527	3.81896
55.6756	3.81881
55.7973	3.81869
55.9209	3.81858
56.0456	3.81852
56.1706	3.81847
56.2961	3.81842
56.4218	3.81836
56.549	3.81827
56.6755	3.81817
56.8005	3.81803
56.9249	3.81788
57.0485	3.8177
57.1728	3.81752
57.2954	3.81732
57.4184	3.81712
57.5409	3.8169
57.6638	3.81667
57.7856	3.81642
57.9068	3.81617
58.0256	3.81591
58.1445	3.81566
58.263	3.81537
58.3807	3.81507
58.5001	3.81474
58.6195	3.8144
58.7391	3.81404
58.86	3.81366
58.9811	3.81325
59.1014	3.81284
59.2226	3.81243
59.3436	3.81213
59.4643	3.81196
59.5849	3.8119
59.7069	3.81195
59.828	3.81215
59.9486	3.8127
60.0706	3.81309
60.1903	3.8135
60.3077	3.81392
60.425	3.81431
60.5422	3.81467
60.6606	3.815
60.7784	3.81529
60.8956	3.81556
61.0144	3.81581
61.1321	3.81606
61.2511	3.81632
61.3712	3.81656
61.4894	3.81683
61.609	3.8171
61.7291	3.81738
61.8464	3.81767
61.9634	3.81794
62.0812	3.81822
62.1965	3.8185
62.312	3.81875
62.4266	3.819
62.5423	3.81921
62.6577	3.81942
62.7752	3.81958
62.8949	3.81969
63.0161	3.81982
63.1384	3.81994
63.2634	3.82006
63.3891	3.82015
63.5155	3.82024
63.6428	3.8203
63.77	3.8203
63.8962	3.82024
64.0221	3.82014
64.1493	3.81995
64.276	3.81968
64.4058	3.81929
64.5344	3.81881
64.6599	3.81826
64.7881	3.81763
64.9181	3.81694
65.0479	3.81621
65.1781	3.81545
65.3076	3.81468
65.4378	3.81391
65.5677	3.81315
65.6968	3.8124
65.8249	3.81169
65.9534	3.81103
66.0811	3.81048
66.2085	3.81004
66.3349	3.80972
66.4602	3.80948
66.5852	3.80941
66.7096	3.80934
66.8352	3.80952
66.9607	3.80983
67.0857	3.81023
67.2117	3.81067
67.3374	3.81115
67.4634	3.81163
67.59	3.81212
67.7164	3.81265
67.8423	3.81311
67.9686	3.81355
68.095	3.81393
68.224	3.81426
68.3506	3.81448
68.4781	3.81463
68.6071	3.81471
68.7347	3.81473
68.8616	3.8147
68.9885	3.81462
69.1159	3.81449
69.2431	3.81433
69.3694	3.81413
69.4966	3.8139
69.6239	3.81366
69.7519	3.81341
69.8771	3.81316
70.0008	3.81292
70.1252	3.8127
70.2484	3.8125
70.3697	3.81232
70.4905	3.8122
70.6078	3.81216
70.7234	3.81228
70.8373	3.81248
70.951	3.81279
71.0633	3.81322
71.1746	3.81375
71.2853	3.81437
71.3953	3.81506
71.506	3.81577
71.6145	3.81635
71.7245	3.81678
71.8332	3.81707
71.9427	3.81723
72.0497	3.81721
72.155	3.81707
72.2591	3.81681
72.3618	3.81651
72.4625	3.81617
72.5625	3.81581
72.6618	3.81546
72.7585	3.8151
72.8548	3.81477
72.9516	3.81441
73.0491	3.81407
73.1447	3.81369
73.24	3.81331
73.3332	3.81294
73.4266	3.81255
73.5192	3.81217
73.6115	3.81179
73.7036	3.81141
73.7957	3.81102
73.8868	3.81068
73.9784	3.81037
74.0692	3.81014
74.1606	3.80997
74.2525	3.80989
74.3457	3.80985
74.4394	3.80986
74.5331	3.80993
74.6272	3.80999
74.7214	3.81003
74.8168	3.81007
74.9146	3.81009
75.0138	3.8101
75.1143	3.8101
75.2151	3.81009
75.3178	3.8101
75.4195	3.81007
75.521	3.81004
75.6221	3.81002
75.7233	3.81002
75.8232	3.81003
75.9244	3.81005
76.0263	3.81003
76.1275	3.81015
76.2275	3.81034
76.3299	3.81062
76.4317	3.81097
76.5327	3.81141
76.6355	3.81193
76.7385	3.81224
76.8416	3.81288
76.9467	3.81356
77.0525	3.81423
77.159	3.81484
77.2664	3.81539
77.3753	3.81586
77.4811	3.8162
77.589	3.81657
77.7005	3.81669
77.8085	3.81668
77.9167	3.81657
78.0256	3.81638
78.1376	3.81611
78.2521	3.81581
78.3681	3.81543
78.4849	3.81501
78.6023	3.81454
78.7202	3.81406
78.84	3.81357
78.9601	3.81307
79.0811	3.8126
79.1999	3.81215
79.3195	3.81174
79.4412	3.81137
79.5619	3.81103
79.6842	3.81074
79.8046	3.81049
79.9253	3.81028
80.0462	3.81013
80.1665	3.81002
80.2859	3.80995
80.4045	3.80991
80.5227	3.80998
80.6418	3.81016
80.76	3.81044
80.8789	3.81085
80.9973	3.81137
81.1144	3.81195
81.2336	3.81254
81.353	3.81305
81.4728	3.81351
81.5945	3.81387
81.7159	3.8141
81.8373	3.8142
81.959	3.8142
82.0811	3.81411
82.203	3.81397
82.326	3.81382
82.4487	3.81367
82.5714	3.81353
82.6946	3.81342
82.8184	3.81333
82.9427	3.81327
83.0677	3.81324
83.1929	3.81323
83.3185	3.81322
83.4432	3.81323
83.5676	3.81323
83.6906	3.81322
83.8134	3.8132
83.9358	3.81317
84.0589	3.81315
84.1815	3.8131
84.305	3.81304
84.4272	3.81298
84.5528	3.81291
84.6785	3.81288
84.8044	3.81281
84.931	3.81277
85.0573	3.81276
85.1836	3.81271
85.3094	3.81268
85.435	3.8126
85.5603	3.81248
85.686	3.81233
85.8114	3.81219
85.9363	3.81203
86.0605	3.81188
86.1852	3.81171
86.3083	3.81155
86.4329	3.8114
86.5595	3.81125
86.6873	3.81109
86.812	3.81095
86.9398	3.81082
87.0691	3.81069
87.1987	3.81059
87.326	3.81049
87.4522	3.81042
87.5785	3.81038
87.706	3.8104
87.8322	3.81059
87.959	3.81082
88.0844	3.81098
88.2091	3.81117
88.332	3.81136
88.4584	3.81155
88.585	3.81173
88.7103	3.81187
88.8362	3.81226
88.96	3.81231
89.0867	3.8123
89.2131	3.81221
89.3385	3.81205
89.4642	3.81186
89.5897	3.81165
89.7155	3.8114
89.8414	3.81114
89.9685	3.81088
90.0974	3.81062
90.226	3.81036
90.355	3.81012
90.4851	3.80989
90.615	3.80967
90.7452	3.80948
90.8747	3.80932
91.0033	3.80918
91.1317	3.80908
91.2619	3.80901
91.391	3.80899
91.5204	3.80901
91.6489	3.80906
91.7771	3.80917
91.9048	3.80932
92.0322	3.80954
92.1602	3.8098
92.2872	3.81014
92.4129	3.81052
92.5386	3.81093
92.6637	3.81137
92.7895	3.8118
92.9167	3.81224
93.0419	3.81258
93.1677	3.81282
93.293	3.81296
93.4191	3.81295
93.5449	3.81281
93.6711	3.81256
93.797	3.81221
93.9238	3.8118
94.0485	3.81133
94.1735	3.81086
94.2981	3.81038
94.4233	3.80991
94.548	3.80945
94.6731	3.809
94.7967	3.80857
94.92	3.80814
95.044	3.80773
95.1669	3.80735
95.2882	3.80697
95.4074	3.80662
95.5269	3.80633
95.6453	3.80602
95.7649	3.80574
95.8816	3.80551
95.999	3.80534
96.1161	3.80525
96.2334	3.80523
96.3499	3.80529
96.468	3.80541
96.5873	3.80557
96.7064	3.80581
96.825	3.80608
96.9439	3.80637
97.0626	3.80668
97.1818	3.80697
97.3	3.80727
97.42	3.80756
97.5406	3.80783
97.6624	3.80811
97.7847	3.80835
97.9086	3.80857
98.0304	3.80877
98.1539	3.80894
98.277	3.80908
98.4006	3.80921
98.5238	3.80931
98.648	3.8094
98.773	3.80949
98.8999	3.80956
99.0263	3.80964
99.1535	3.80968
99.2788	3.80976
99.4021	3.80986
99.526	3.80998
99.6498	3.81012
99.7737	3.81029
99.8944	3.81047
100.017	3.81065
100.14	3.81079
100.265	3.81079
100.389	3.81082
100.512	3.81081
100.634	3.81073
100.758	3.81059
100.881	3.81041
101.005	3.81017
101.129	3.80992
101.254	3.80966
101.378	3.80942
101.502	3.8092
101.627	3.80904
101.751	3.80892
101.876	3.80882
102	3.80875
102.123	3.80871
102.249	3.80868
102.375	3.80867
102.501	3.80866
102.626	3.80867
102.751	3.80868
102.876	3.80869
103.001	3.80867
103.127	3.80869
103.254	3.80877
103.38	3.80883
103.505	3.8089
103.633	3.80903
103.762	3.80919
103.89	3.80937
104.02	3.80956
104.151	3.80975
104.281	3.80994
104.413	3.81012
104.548	3.81028
104.684	3.81038
104.819	3.81046
104.956	3.81049
105.092	3.81049
105.229	3.81046
105.365	3.81041
105.497	3.81034
105.63	3.81024
105.765	3.81012
105.896	3.81
106.027	3.80988
106.16	3.80975
106.293	3.8096
106.425	3.80946
106.557	3.80931
106.689	3.80915
106.822	3.80898
106.953	3.80898
107.083	3.80877
107.213	3.80858
107.34	3.80837
107.466	3.80817
107.592	3.80796
107.717	3.80773
107.842	3.80751
107.966	3.80729
108.091	3.80706
108.216	3.80692
108.341	3.80683
108.465	3.80677
108.591	3.80676
108.715	3.80676
108.843	3.80678
108.971	3.80683
109.099	3.8069
109.227	3.807
109.355	3.8071
109.484	3.80723
109.613	3.80739
109.74	3.80757
109.868	3.80774
109.995	3.80793
110.122	3.8081
110.251	3.80828
110.379	3.80846
110.51	3.80867
110.642	3.80889
110.772	3.80912
110.901	3.80933
111.032	3.80955
111.161	3.80974
111.291	3.80991
111.421	3.81008
111.552	3.81025
111.682	3.81039
111.812	3.8105
111.939	3.81059
112.068	3.8106
112.197	3.81054
112.325	3.81041
112.455	3.81022
112.584	3.80995
112.714	3.8096
112.844	3.80921
112.972	3.80879
113.1	3.80835
113.229	3.80792
113.354	3.80749
113.479	3.80706
113.603	3.80664
113.728	3.80623
113.852	3.80581
113.977	3.80538
114.1	3.80493
114.223	3.80448
114.348	3.80403
114.473	3.80356
114.6	3.80314
114.727	3.80288
114.856	3.80254
114.985	3.80227
115.116	3.80208
115.248	3.80198
115.377	3.80198
115.507	3.80204
115.636	3.80217
115.764	3.80236
115.893	3.80262
116.021	3.80289
116.147	3.8031
116.274	3.80335
116.4	3.80358
116.525	3.80373
116.65	3.80383
116.775	3.80389
116.9	3.8039
117.025	3.80386
117.15	3.80377
117.276	3.80363
117.403	3.80344
117.53	3.80323
117.657	3.80298
117.783	3.80272
117.908	3.80244
118.035	3.80215
118.161	3.80185
118.285	3.80155
118.407	3.80124
118.529	3.80096
118.652	3.80075
118.773	3.80049
118.894	3.8003
119.012	3.80018
119.13	3.80018
119.253	3.80028
119.37	3.80049
119.487	3.80079
119.604	3.80101
119.725	3.80151
119.845	3.80207
119.963	3.80268
120.079	3.80333
120.197	3.80401
120.315	3.80471
120.431	3.80538
120.55	3.80602
120.669	3.8066
120.788	3.8071
120.909	3.80749
121.029	3.80778
121.15	3.80797
121.271	3.80806
121.394	3.80805
121.517	3.80796
121.642	3.80778
121.766	3.80752
121.891	3.80721
122.016	3.80682
122.141	3.80636
122.267	3.80569
122.394	3.80516
122.521	3.80461
122.649	3.80405
122.778	3.80349
122.907	3.80297
123.036	3.80246
123.164	3.80197
123.291	3.8015
123.417	3.80107
123.544	3.80067
123.667	3.80032
123.791	3.80001
123.913	3.79972
124.035	3.79945
124.159	3.7992
124.282	3.79898
124.405	3.79882
124.528	3.79869
124.652	3.79859
124.777	3.79853
124.901	3.7985
125.026	3.79851
125.149	3.79854
125.271	3.7986
125.394	3.79866
125.516	3.79873
125.639	3.79878
125.762	3.79883
125.882	3.79886
126.004	3.79891
126.128	3.79898
126.252	3.79908
126.377	3.79923
126.502	3.79947
126.624	3.79977
126.745	3.80013
126.868	3.80052
126.99	3.80091
127.113	3.8012
127.235	3.80158
127.357	3.80193
127.481	3.8022
127.605	3.80239
127.728	3.80249
127.852	3.80251
127.977	3.80246
128.102	3.80235
128.231	3.8022
128.359	3.802
128.483	3.80179
128.612	3.80156
128.74	3.80132
128.868	3.80108
128.992	3.80086
129.118	3.80065
129.243	3.80045
129.368	3.8003
129.495	3.80018
129.622	3.80012
129.749	3.8001
129.874	3.8001
130	3.80016
130.126	3.80025
130.252	3.8004
130.378	3.80057
130.506	3.80084
130.633	3.80116
130.758	3.8015
130.883	3.80186
131.009	3.80214
131.134	3.8025
131.26	3.8028
131.384	3.80305
131.509	3.80319
131.633	3.80323
131.756	3.80317
131.879	3.80303
132.004	3.80279
132.129	3.80245
132.254	3.80202
132.383	3.80154
132.51	3.80099
132.637	3.80036
132.763	3.7997
132.889	3.79904
133.014	3.79838
133.141	3.79772
133.266	3.79709
133.391	3.7965
133.515	3.79598
133.638	3.79539
133.76	3.79493
133.882	3.79453
134.004	3.79418
134.125	3.79394
134.247	3.7937
134.369	3.79352
134.493	3.79337
134.62	3.79325
134.749	3.79335
134.879	3.7933
135.012	3.79326
135.146	3.79323
135.283	3.79319
135.419	3.79312
135.554	3.79303
135.688	3.79295
135.821	3.79287
135.954	3.7928
136.087	3.79271
136.222	3.79266
136.357	3.79264
136.492	3.79263
136.627	3.79265
136.763	3.79271
136.9	3.7928
137.037	3.79292
137.173	3.79308
137.309	3.79328
137.448	3.79352
137.586	3.79376
137.724	3.7941
137.863	3.79447
138.003	3.79487
138.143	3.79531
138.282	3.79579
138.423	3.79628
138.565	3.79679
138.707	3.79729
138.849	3.79775
138.99	3.79813
139.131	3.79846
139.272	3.7987
139.413	3.79882
139.554	3.79883
139.695	3.79875
139.834	3.7986
139.972	3.79838
140.11	3.79812
140.246	3.79783
140.379	3.79753
140.512	3.79725
140.645	3.79699
140.778	3.79675
140.911	3.79656
141.044	3.7964
141.176	3.79626
141.308	3.79614
141.441	3.79604
141.576	3.79594
141.712	3.79585
141.847	3.79576
141.98	3.79569
142.111	3.7956
142.243	3.79552
142.372	3.79538
142.504	3.79527
142.636	3.79514
142.77	3.79499
142.903	3.7948
143.039	3.79459
143.174	3.79434
143.31	3.79406
143.445	3.79373
143.58	3.79338
143.717	3.79295
143.855	3.79248
143.992	3.792
144.13	3.79153
144.267	3.79107
144.403	3.79065
144.54	3.79024
144.676	3.78986
144.812	3.78952
144.946	3.7892
145.079	3.78892
145.212	3.78866
145.344	3.78843
145.475	3.78822
145.607	3.78803
145.741	3.78785
145.875	3.78768
146.011	3.78746
146.149	3.78735
146.286	3.78725
146.422	3.78718
146.558	3.7871
146.696	3.78706
146.833	3.78703
146.972	3.78697
147.111	3.78703
147.248	3.78699
147.387	3.78694
147.525	3.7869
147.66	3.78679
147.795	3.78672
147.931	3.78666
148.066	3.7866
148.201	3.78657
148.335	3.78654
148.47	3.78654
148.603	3.78655
148.738	3.78659
148.871	3.78664
149.004	3.78669
149.138	3.78676
149.272	3.78681
149.408	3.78687
149.544	3.7869
149.681	3.78692
149.82	3.78691
149.959	3.78687
150.101	3.78681
150.243	3.78671
150.386	3.78663
150.531	3.78658
150.678	3.78648
150.824	3.7864
150.97	3.78634
151.116	3.78629
151.26	3.78627
151.406	3.78621
151.553	3.78616
151.698	3.78612
151.84	3.78607
151.98	3.78601
152.118	3.78594
152.256	3.78586
152.396	3.78578
152.536	3.78567
152.677	3.78554
152.817	3.78537
152.957	3.78517
153.096	3.78492
153.237	3.78462
153.376	3.78429
153.515	3.78389
153.656	3.78344
153.795	3.78293
153.934	3.78236
154.074	3.78171
154.212	3.781
154.351	3.78022
154.49	3.7794
154.631	3.77844
154.771	3.77755
154.911	3.77666
155.05	3.77578
155.188	3.77491
155.327	3.77414
155.465	3.77342
155.602	3.77274
155.738	3.77212
155.876	3.77155
156.015	3.77104
156.153	3.77061
156.289	3.77016
156.429	3.76975
156.566	3.76935
156.706	3.769
156.846	3.76866
156.988	3.76836
157.127	3.76809
157.267	3.76784
157.406	3.76763
157.544	3.76743
157.684	3.76726
157.825	3.7671
157.966	3.76694
158.107	3.76678
158.249	3.76661
158.39	3.76644
158.531	3.76626
158.673	3.76607
158.813	3.76593
158.954	3.76576
159.097	3.7656
159.238	3.76546
159.38	3.76536
159.523	3.76527
159.666	3.76522
159.811	3.76519
159.953	3.76526
160.098	3.76524
160.241	3.76524
160.383	3.76524
160.526	3.76521
160.667	3.76517
160.808	3.76509
160.95	3.765
161.091	3.76489
161.23	3.76476
161.369	3.7646
161.509	3.76442
161.649	3.76423
161.79	3.764
161.93	3.76375
162.069	3.76346
162.21	3.76314
162.351	3.76279
162.492	3.76241
162.634	3.76201
162.774	3.76159
162.911	3.76115
163.045	3.76078
163.179	3.76034
163.313	3.75992
163.448	3.75951
163.583	3.75907
163.718	3.75869
163.854	3.75834
163.987	3.75799
164.123	3.75763
164.258	3.75729
164.393	3.75685
164.527	3.75635
164.661	3.7558
164.798	3.75517
164.933	3.75446
165.069	3.75366
165.206	3.75278
165.345	3.7518
165.488	3.75075
165.634	3.7496
165.781	3.74838
165.93	3.74708
166.079	3.74574
166.227	3.74432
166.374	3.74289
166.518	3.74145
166.662	3.74003
166.806	3.73865
166.947	3.73732
167.088	3.73607
167.23	3.7349
167.369	3.73378
167.509	3.73277
167.649	3.73181
167.789	3.73094
167.929	3.73013
168.071	3.7294
168.213	3.72873
168.355	3.72812
168.499	3.72756
168.644	3.72713
168.79	3.72662
168.935	3.72613
169.081	3.72563
169.228	3.72516
169.376	3.7246
169.521	3.72403
169.666	3.7234
169.814	3.72276
169.96	3.72209
170.106	3.72139
170.249	3.72069
170.391	3.71996
170.533	3.71923
170.671	3.71851
170.809	3.71778
170.945	3.71707
171.079	3.71635
171.217	3.71566
171.356	3.71496
171.494	3.71427
171.635	3.71359
171.777	3.71295
171.921	3.71229
172.066	3.71165
172.21	3.71103
172.356	3.71043
172.5	3.70982
172.645	3.70924
172.789	3.70865
172.932	3.70801
173.077	3.70741
173.222	3.7068
173.369	3.70619
173.518	3.70556
173.67	3.70492
173.821	3.70428
173.972	3.70363
174.121	3.70298
174.272	3.70232
174.424	3.70164
174.576	3.70093
174.729	3.70019
174.88	3.6994
175.033	3.69855
175.185	3.69763
175.338	3.69666
175.492	3.69562
175.647	3.6945
175.801	3.69331
175.954	3.69204
176.107	3.6907
176.258	3.6893
176.405	3.68782
176.551	3.6862
176.695	3.68461
176.84	3.68296
176.986	3.68127
177.131	3.6796
177.279	3.67789
177.428	3.67609
177.579	3.67433
177.73	3.67254
177.883	3.67072
178.036	3.66891
178.186	3.66702
178.336	3.66509
178.483	3.66314
178.63	3.66119
178.778	3.65925
178.925	3.65733
179.071	3.65544
179.216	3.65358
179.359	3.65176
179.501	3.64998
179.641	3.64825
179.782	3.64658
179.923	3.64495
180.062	3.64339
180.2	3.64189
180.337	3.64045
180.477	3.63909
180.618	3.63778
180.759	3.63655
180.9	3.63537
181.042	3.63427
181.184	3.63321
181.327	3.6322
181.469	3.63126
181.615	3.63036
181.762	3.62949
181.91	3.62867
182.059	3.62784
182.206	3.62703
182.354	3.62621
182.501	3.62539
182.65	3.62455
182.797	3.6237
182.942	3.62283
183.087	3.62193
183.231	3.621
183.373	3.62006
183.517	3.61911
183.661	3.61817
183.808	3.6172
183.955	3.61625
184.107	3.61529
184.26	3.61435
184.411	3.61342
184.561	3.61247
184.71	3.61149
184.858	3.61048
185.008	3.60943
185.157	3.60833
185.305	3.60714
185.45	3.60587
185.592	3.60452
185.737	3.60306
185.883	3.6015
186.03	3.59985
186.177	3.59814
186.324	3.59634
186.467	3.59441
186.609	3.59242
186.753	3.59035
186.895	3.58818
187.038	3.58591
187.18	3.58358
187.321	3.58117
187.462	3.5787
187.601	3.57616
187.738	3.57354
187.873	3.57086
188.009	3.56808
188.145	3.56524
188.279	3.56232
188.411	3.55933
188.543	3.55627
188.674	3.55316
188.807	3.55
188.939	3.54682
189.078	3.54364
189.216	3.54047
189.356	3.53732
189.495	3.5342
189.638	3.53114
189.781	3.52812
189.924	3.5252
190.068	3.52234
190.212	3.51959
190.356	3.51692
190.503	3.51442
190.649	3.51205
190.798	3.5098
190.949	3.50774
191.099	3.50571
191.247	3.5038
191.394	3.50194
191.538	3.50013
191.685	3.49837
191.832	3.49666
191.98	3.49496
192.128	3.49329
192.28	3.49163
192.428	3.48997
192.576	3.48833
192.724	3.48669
192.871	3.48508
193.02	3.48347
193.169	3.48187
193.317	3.4803
193.461	3.47874
193.609	3.47722
193.757	3.47571
193.903	3.47422
194.05	3.47275
194.194	3.47129
194.338	3.46982
194.481	3.46834
194.623	3.46685
194.766	3.46535
194.906	3.46382
195.046	3.46226
195.188	3.46063
195.328	3.4589
195.47	3.45704
195.613	3.45507
195.755	3.45296
195.899	3.45069
196.044	3.44826
196.19	3.44565
196.337	3.44289
196.483	3.43998
196.627	3.43692
196.77	3.43373
196.914	3.43042
197.058	3.42699
197.202	3.42346
197.344	3.4198
197.485	3.41606
197.627	3.41225
197.768	3.40834
197.91	3.40435
198.053	3.40026
198.196	3.39611
198.341	3.39189
198.485	3.38766
198.629	3.38341
198.774	3.37911
198.919	3.37485
199.064	3.37065
199.21	3.36647
199.355	3.36244
199.499	3.35846
199.644	3.35457
199.79	3.35075
199.934	3.34701
200.079	3.34336
200.226	3.33979
200.371	3.33629
200.514	3.33281
200.66	3.3294
200.807	3.32605
200.953	3.32273
201.1	3.31945
201.246	3.31619
201.389	3.31298
201.533	3.30978
201.676	3.30661
201.815	3.30344
201.958	3.30029
202.102	3.29717
202.245	3.29405
202.391	3.29098
202.535	3.28791
202.676	3.28487
202.817	3.28185
202.957	3.27884
203.095	3.27585
203.234	3.27293
203.373	3.26995
203.513	3.26697
203.649	3.26401
203.784	3.26107
203.916	3.25815
204.05	3.25524
204.186	3.25236
204.319	3.24946
204.454	3.24659
204.589	3.24371
204.726	3.24086
204.865	3.23793
205.003	3.23497
205.141	3.23201
205.281	3.22904
205.419	3.22605
205.559	3.223
205.7	3.21993
205.841	3.2168
205.983	3.21363
206.126	3.21042
206.267	3.20715
206.411	3.20385
206.553	3.20049
206.694	3.19709
206.834	3.19364
206.975	3.19016
207.117	3.18662
207.26	3.18302
207.403	3.17938
207.547	3.17567
207.696	3.17178
207.847	3.16796
208.001	3.16407
208.157	3.16015
208.311	3.15621
208.464	3.15222
208.616	3.14819
208.767	3.14409
208.917	3.13991
209.066	3.13561
209.216	3.13122
209.366	3.12674
209.517	3.12219
209.665	3.11759
209.816	3.11294
209.968	3.10824
210.121	3.10352
210.273	3.09879
210.426	3.09407
210.579	3.08938
210.731	3.08471
210.878	3.08008
211.024	3.07553
211.171	3.07098
211.316	3.06645
211.457	3.06196
211.597	3.05745
211.739	3.05297
211.884	3.04848
212.03	3.04397
212.174	3.03947
212.318	3.03494
212.464	3.03043
212.614	3.02586
212.763	3.02126
212.916	3.01663
213.07	3.01193
213.222	3.00719
213.376	3.00232
213.53	2.99733
213.684	2.99223
213.836	2.98695
213.986	2.98157
214.135	2.97608
214.285	2.97051
214.435	2.96485
214.587	2.95912
214.739	2.95333
214.89	2.94751
215.039	2.94167
215.187	2.9358
215.336	2.92992
215.482	2.92404
215.628	2.91816
215.773	2.91231
215.917	2.90646
216.06	2.90063
216.202	2.89484
216.341	2.88909
216.481	2.8834
216.621	2.87777
216.757	2.87221
216.894	2.86672
217.032	2.86131
217.17	2.85595
217.309	2.85066
217.446	2.84542
217.584	2.84025
217.725	2.83505
217.868	2.82998
218.01	2.82494
218.153	2.81992
218.296	2.81491
218.437	2.80991
218.577	2.80491
218.715	2.7999
218.85	2.79487
218.985	2.78981
219.12	2.7847
219.256	2.77956
219.393	2.77437
219.532	2.76913
219.671	2.7638
219.812	2.75841
219.953	2.75295
220.097	2.74745
220.241	2.74191
220.386	2.73632
220.532	2.7307
220.677	2.72504
220.82	2.71938
220.962	2.7137
221.105	2.70801
221.245	2.70231
221.387	2.69658
221.533	2.69087
221.683	2.68516
221.837	2.67948
221.993	2.67383
222.151	2.66823
222.312	2.66282
222.472	2.65733
222.63	2.65187
222.786	2.6464
222.939	2.64086
223.091	2.63526
223.242	2.6296
223.39	2.62388
223.534	2.61809
223.682	2.61222
223.829	2.60626
223.977	2.60021
224.124	2.59406
224.27	2.58781
224.416	2.58149
224.565	2.57506
224.713	2.56855
224.862	2.56193
225.012	2.5552
225.163	2.54834
225.312	2.54139
225.46	2.53431
225.608	2.52707
225.753	2.51976
225.898	2.51234
226.042	2.50485
226.187	2.4973
226.333	2.48972
226.48	2.48218
226.624	2.47468
226.769	2.46722
226.912	2.45985
227.055	2.45259
227.196	2.44544
227.337	2.43838
227.478	2.43137
227.618	2.42446
227.758	2.41765
227.897	2.41095
228.037	2.40437
228.178	2.39795
228.319	2.39167
228.459	2.38557
228.598	2.37961
228.737	2.3738
228.876	2.36813
229.014	2.36258
229.154	2.35713
229.294	2.35175
229.434	2.34643
229.572	2.34116
229.713	2.3359
229.854	2.33067
229.995	2.32545
230.137	2.3202
230.283	2.31497
230.432	2.30973
230.584	2.30447
230.742	2.29918
230.901	2.29387
231.058	2.28848
231.214	2.28306
231.371	2.27758
231.527	2.27204
231.681	2.26647
231.838	2.26087
231.996	2.25525
232.154	2.24957
232.311	2.24383
232.467	2.23802
232.618	2.23216
232.768	2.22625
232.912	2.22029
233.054	2.21428
233.194	2.20823
233.331	2.20215
233.466	2.19601
233.601	2.18985
233.737	2.18365
233.879	2.17743
234.025	2.17116
234.175	2.16489
234.327	2.15858
234.477	2.15223
234.621	2.14585
234.758	2.13942
234.893	2.13292
235.029	2.12636
235.166	2.1197
235.303	2.11296
235.438	2.10609
235.576	2.09911
235.715	2.09202
235.853	2.08482
235.99	2.07752
236.133	2.07011
236.275	2.06258
236.417	2.05495
236.563	2.04719
236.707	2.03928
236.848	2.03124
236.987	2.02307
237.124	2.01477
237.258	2.00636
237.393	1.9979
237.529	1.9894
237.668	1.98091
237.81	1.97243
237.955	1.96405
238.099	1.95576
238.244	1.9476
238.389	1.93962
238.533	1.93181
238.68	1.9242
238.829	1.91677
238.98	1.90955
239.133	1.90252
239.286	1.89569
239.436	1.88908
239.582	1.88268
239.725	1.87651
239.866	1.8706
240.007	1.86493
240.147	1.85953
240.287	1.85437
240.426	1.84944
240.564	1.84473
240.701	1.8402
240.837	1.83577
240.97	1.83146
241.102	1.82723
241.23	1.82306
241.358	1.81888
241.482	1.8147
241.606	1.8105
241.732	1.80629
241.858	1.80205
241.985	1.79777
242.114	1.79345
242.242	1.78906
242.369	1.78459
242.496	1.78005
242.621	1.7754
242.747	1.77066
242.872	1.76581
242.997	1.76084
243.122	1.7558
243.247	1.75067
243.376	1.74548
243.508	1.7402
243.644	1.73486
243.781	1.72948
243.92	1.72407
244.056	1.71861
244.189	1.71313
244.322	1.70762
244.451	1.70208
244.58	1.69648
244.709	1.69085
244.839	1.68518
244.972	1.67951
245.106	1.67383
245.238	1.66815
245.368	1.66249
245.497	1.65682
245.625	1.65114
245.754	1.64541
245.879	1.63961
246.005	1.63375
246.13	1.6278
246.252	1.62174
246.377	1.61558
246.507	1.60927
246.638	1.60284
246.772	1.59629
246.911	1.58959
247.053	1.58278
247.197	1.57582
247.344	1.56873
247.495	1.56151
247.646	1.55416
247.802	1.54669
247.957	1.53913
248.112	1.53148
248.266	1.52375
248.416	1.51598
248.566	1.50819
248.716	1.50041
248.862	1.49269
249.003	1.48505
249.141	1.47751
249.276	1.4701
249.413	1.46281
249.55	1.45549
249.689	1.44845
249.83	1.44156
249.973	1.43482
250.113	1.42825
250.254	1.42184
250.396	1.41565
250.539	1.40965
250.688	1.40387
250.838	1.39831
250.991	1.39296
251.146	1.38784
251.299	1.38291
251.453	1.37815
251.603	1.37352
251.752	1.36899
251.897	1.36454
252.04	1.36014
252.184	1.35576
252.332	1.35139
252.48	1.34703
252.631	1.34269
252.782	1.33834
252.931	1.33399
253.079	1.32963
253.227	1.32523
253.373	1.32081
253.518	1.31635
253.662	1.31182
253.806	1.3072
253.947	1.30248
254.087	1.29766
254.227	1.29275
254.368	1.28772
254.512	1.2828
254.655	1.27758
254.796	1.27229
254.934	1.26693
255.075	1.26152
255.216	1.25607
255.36	1.25059
255.502	1.24511
255.643	1.23962
255.784	1.2341
255.925	1.22858
256.067	1.22304
256.214	1.21752
256.364	1.21202
256.516	1.20655
256.674	1.20112
256.833	1.19571
256.994	1.19037
257.153	1.18511
257.311	1.1799
257.462	1.17475
257.611	1.16964
257.76	1.16458
257.908	1.15957
258.052	1.15462
258.197	1.1497
258.339	1.1448
258.48	1.13994
258.621	1.1351
258.755	1.13026
258.89	1.12545
259.024	1.12065
259.159	1.11584
259.295	1.11102
259.429	1.10617
259.559	1.10141
259.691	1.09653
259.825	1.09162
259.957	1.08672
260.092	1.08184
260.225	1.07705
260.36	1.07231
260.496	1.06768
260.63	1.06317
260.764	1.0588
260.902	1.05457
261.041	1.05047
261.179	1.04651
261.315	1.04273
261.443	1.03908
261.571	1.03559
261.699	1.03224
261.831	1.02904
261.967	1.02601
262.104	1.02317
262.238	1.02049
262.37	1.018
262.503	1.01568
262.636	1.01354
262.765	1.01155
262.891	1.00967
263.014	1.00789
263.134	1.00617
263.255	1.00449
263.379	1.00283
263.505	1.00117
263.632	0.999675
263.76	0.998028
263.889	0.996384
264.019	0.994772
264.15	0.992999
264.282	0.991158
264.414	0.98926
264.544	0.987241
264.672	0.985133
264.799	0.98292
264.927	0.980617
265.056	0.978208
265.184	0.975695
265.31	0.973092
265.434	0.970425
265.557	0.967713
265.683	0.964984
265.811	0.96224
265.943	0.959494
266.081	0.956723
266.222	0.953936
266.361	0.951111
266.493	0.948273
266.62	0.945403
266.743	0.94251
266.867	0.939606
266.994	0.936695
267.128	0.933773
267.263	0.930867
267.396	0.928004
267.526	0.925183
267.653	0.922419
267.782	0.919714
267.915	0.917089
268.052	0.914332
268.193	0.911833
268.335	0.909598
268.48	0.907187
268.63	0.904804
268.778	0.902438
268.928	0.900111
269.081	0.89782
269.231	0.895547
269.379	0.893318
269.53	0.891093
269.678	0.888882
269.823	0.886663
269.974	0.884414
270.125	0.882152
270.283	0.879832
270.442	0.87749
270.6	0.875086
270.755	0.872609
270.911	0.870091
271.061	0.867524
271.208	0.864936
271.357	0.862335
271.508	0.859732
271.657	0.857116
271.807	0.854509
271.952	0.851955
272.092	0.849458
272.225	0.847024
272.358	0.844678
272.495	0.842414
272.636	0.840244
272.779	0.838179
272.92	0.836219
273.06	0.834369
273.204	0.832515
273.349	0.830837
273.493	0.829251
273.638	0.827692
273.786	0.826233
273.936	0.824816
274.088	0.82345
274.239	0.822112
274.389	0.820798
274.544	0.819477
274.695	0.818145
274.842	0.816796
274.991	0.815405
275.136	0.813952
275.28	0.812477
275.421	0.810955
275.561	0.809386
275.702	0.807778
275.845	0.806097
275.99	0.804341
276.134	0.802515
276.279	0.800611
276.425	0.798654
276.568	0.796655
276.707	0.794614
276.841	0.792569
276.973	0.790526
277.103	0.788469
277.234	0.786446
277.369	0.78449
277.508	0.782641
277.646	0.780911
277.778	0.779273
277.909	0.777744
278.037	0.776235
278.17	0.774971
278.305	0.773802
278.443	0.772659
278.578	0.771568
278.712	0.770493
278.842	0.76944
278.973	0.768394
279.103	0.767345
279.228	0.766316
279.349	0.765311
279.467	0.764333
279.584	0.763358
279.699	0.762379
279.821	0.761399
279.945	0.760399
280.072	0.759423
280.202	0.758456
280.333	0.757503
280.46	0.756575
280.583	0.755661
280.703	0.754778
280.822	0.753893
280.941	0.753015
281.064	0.752136
281.189	0.751264
281.318	0.750432
281.446	0.749618
281.573	0.748827
281.701	0.748062
281.83	0.747313
281.96	0.746579
282.091	0.745873
282.224	0.744976
282.361	0.744304
282.495	0.743616
282.625	0.742957
282.752	0.742259
282.879	0.741543
283.011	0.740821
283.144	0.740093
283.277	0.739352
283.41	0.738613
283.546	0.737877
283.678	0.737132
283.805	0.736389
283.93	0.735665
284.051	0.734949
284.171	0.734225
284.293	0.733602
284.415	0.733045
284.541	0.732546
284.672	0.732147
284.805	0.731834
284.941	0.731585
285.078	0.731392
285.213	0.731279
285.347	0.731147
285.479	0.731008
285.609	0.730851
285.738	0.730689
285.866	0.73051
285.99	0.730313
286.11	0.730072
286.227	0.729799
286.347	0.729468
286.463	0.729075
286.575	0.728619
286.689	0.728088
286.802	0.727548
286.914	0.726878
287.023	0.726138
287.134	0.725324
287.252	0.724518
287.367	0.723626
287.481	0.722713
287.592	0.721806
287.7	0.720944
287.806	0.720151
287.911	0.719423
288.013	0.71874
288.111	0.718126
288.205	0.717571
288.297	0.71707
288.391	0.716657
288.483	0.716303
288.574	0.716
288.662	0.715748
288.75	0.715541
288.834	0.715331
288.918	0.715171
288.997	0.715046
289.073	0.714952
289.155	0.714944
289.24	0.714994
289.325	0.715065
289.41	0.715129
289.49	0.715189
289.569	0.715224
289.646	0.715217
289.724	0.71517
289.802	0.715045
289.884	0.714864
289.966	0.714675
290.047	0.714471
290.128	0.714257
290.209	0.714029
290.289	0.713802
290.368	0.713589
290.449	0.713368
290.53	0.713141
290.608	0.712893
290.683	0.71265
290.756	0.712402
290.823	0.71215
290.888	0.711897
290.949	0.711647
291.006	0.711397
291.061	0.711157
291.113	0.710916
291.167	0.710683
291.215	0.710451
291.262	0.710256
291.311	0.70993
291.359	0.709717
291.403	0.709576
291.444	0.70944
291.482	0.709308
291.52	0.709187
291.559	0.709104
291.597	0.70903
291.64	0.708949
291.684	0.708849
291.729	0.70874
291.775	0.708624
291.821	0.708513
291.868	0.708371
291.915	0.708235
291.967	0.708093
292.026	0.707959
292.085	0.707809
292.143	0.707675
292.201	0.707534
292.261	0.707391
292.327	0.707265
292.39	0.707126
292.455	0.706995
292.515	0.706892
292.569	0.706831
292.622	0.706757
292.678	0.706712
292.739	0.706687
292.806	0.706643
292.876	0.706607
292.945	0.706582
293.013	0.706569
293.079	0.70654
293.142	0.706551
293.204	0.706566
293.264	0.70658
293.321	0.70658
293.379	0.706573
293.437	0.706551
293.49	0.706513
293.543	0.70644
293.594	0.706331
293.649	0.706201
293.704	0.706034
293.753	0.70582
293.799	0.705555
293.842	0.705286
293.881	0.705007
293.927	0.70473
293.974	0.704449
294.023	0.70416
294.067	0.703889
294.108	0.703637
294.143	0.703411
294.175	0.703227
294.207	0.703048
294.236	0.702897
294.262	0.702766
294.285	0.702662
294.302	0.702585
294.319	0.702512
294.336	0.702472
294.355	0.702468
294.38	0.702508
294.404	0.702592
294.431	0.70276
294.457	0.70296
294.486	0.703198
294.514	0.703467
294.544	0.70374
294.577	0.703987
294.611	0.704205
294.648	0.704377
294.689	0.70447
294.726	0.704526
294.766	0.704507
294.807	0.704446
294.85	0.704374
294.892	0.704268
294.93	0.704149
294.964	0.70404
294.999	0.703913
295.035	0.703783
295.076	0.703655
295.115	0.703506
295.149	0.703354
295.181	0.703208
295.213	0.703055
295.247	0.702896
295.283	0.702747
295.314	0.702593
295.341	0.702456
295.371	0.702331
295.401	0.702219
295.43	0.702116
295.455	0.701998
295.481	0.701899
295.504	0.701819
295.524	0.701773
295.549	0.701843
295.573	0.7019
295.596	0.701943
295.612	0.701996
295.623	0.702075
295.631	0.70214
295.639	0.702164
295.646	0.702161
295.655	0.702155
295.665	0.702141
295.677	0.702099
295.69	0.702048
295.703	0.702004
295.721	0.701961
295.744	0.701911
295.77	0.701879
295.795	0.701826
295.819	0.701785
295.84	0.701752
295.861	0.701708
295.883	0.701657
295.903	0.701594
295.923	0.701551
295.943	0.701536
295.958	0.701529
295.973	0.701515
295.986	0.701541
296.001	0.701559
296.016	0.701598
296.033	0.701661
296.052	0.701746
296.072	0.701848
296.095	0.701954
296.12	0.702024
296.146	0.702092
296.171	0.702149
296.193	0.702191
296.213	0.7022
296.237	0.702173
296.262	0.702128
296.296	0.702048
296.331	0.701923
296.364	0.701765
296.393	0.701567
296.417	0.701358
296.441	0.701154
296.47	0.700947
296.497	0.700736
296.525	0.700543
296.551	0.700361
296.577	0.700169
296.599	0.700042
296.616	0.699939
296.628	0.699846
296.64	0.699786
296.655	0.699709
296.671	0.699631
296.687	0.699574
296.7	0.699531
296.713	0.699514
296.732	0.699546
296.758	0.699633
296.788	0.699749
296.826	0.699906
296.865	0.700104
296.898	0.700322
296.926	0.700526
296.956	0.700733
296.986	0.700905
297.019	0.701019
297.053	0.701068
297.084	0.701066
297.11	0.70102
297.136	0.700931
297.165	0.70063
297.185	0.700486
297.202	0.700372
297.216	0.70026
297.232	0.700153
297.254	0.70004
297.28	0.699898
297.309	0.699757
297.342	0.699621
297.376	0.699485
297.411	0.69935
297.449	0.699218
297.489	0.699113
297.531	0.69901
297.57	0.698925
297.601	0.698841
297.628	0.698759
297.654	0.698692
297.68	0.698612
297.708	0.698552
297.737	0.698517
297.764	0.698499
297.79	0.698528
297.818	0.698585
297.848	0.698675
297.878	0.698712
297.911	0.698861
297.945	0.698958
297.978	0.699028
298.014	0.699076
298.051	0.699092
298.09	0.699086
298.13	0.699046
298.166	0.699007
298.201	0.698946
298.238	0.69888
298.274	0.698809
298.314	0.698731
298.354	0.698639
298.393	0.698548
298.432	0.69846
298.467	0.698324
298.497	0.698216
298.527	0.698103
298.555	0.69799
298.583	0.697891
298.61	0.697826
298.63	0.697785
298.645	0.697766
298.66	0.697743
298.677	0.697743
298.7	0.697831
298.724	0.697892
298.754	0.698012
298.785	0.698123
298.816	0.698225
298.847	0.698304
298.88	0.698396
298.911	0.69847
298.943	0.698539
298.967	0.698564
298.988	0.698551
299.007	0.698517
299.025	0.698464
299.036	0.698385
299.041	0.698272
299.046	0.69814
299.052	0.698005
299.054	0.697858
299.055	0.697719
299.053	0.697579
299.049	0.697443
299.045	0.697324
299.044	0.697222
299.044	0.697135
299.041	0.697112
299.038	0.697048
299.039	0.697034
299.042	0.697095
299.046	0.697137
299.046	0.697149
299.04	0.697161
299.034	0.697215
299.024	0.697277
299.013	0.697389
299.002	0.697533
298.987	0.697695
298.969	0.697862
298.947	0.698047
298.924	0.698228
298.902	0.698396
298.885	0.69855
298.871	0.698667
298.86	0.698715
298.851	0.698738
298.844	0.698732
298.842	0.698707
298.843	0.698654
298.843	0.69859
298.842	0.698242
298.842	0.698355
298.839	0.698306
298.835	0.698243
298.83	0.698213
298.825	0.698144
298.816	0.698103
298.804	0.698071
298.791	0.698022
298.779	0.697992
298.766	0.697961
298.754	0.697924
298.743	0.697902
298.731	0.697857
298.719	0.697818
298.711	0.697776
298.697	0.697752
298.682	0.697748
298.668	0.697764
298.654	0.697821
298.645	0.69789
298.647	0.697982
298.654	0.698098
298.669	0.698223
298.693	0.698359
298.723	0.698443
298.755	0.698594
298.786	0.698698
298.814	0.698805
298.839	0.69889
298.863	0.69896
298.887	0.699024
298.908	0.699055
298.927	0.699079
298.944	0.699098
298.959	0.699107
298.973	0.699097
298.982	0.699099
298.988	0.699103
298.99	0.699091
298.993	0.699072
298.995	0.699043
298.999	0.69903
299.006	0.698986
299.015	0.698953
299.025	0.698909
299.034	0.698868
299.044	0.698807
299.058	0.698741
299.077	0.698676
299.094	0.698625
299.114	0.698592
299.139	0.698593
299.168	0.698665
299.201	0.698678
299.239	0.698727
299.28	0.698781
299.32	0.698794
299.361	0.698754
299.404	0.698687
299.442	0.698595
299.476	0.698465
299.51	0.69836
299.541	0.698262
299.573	0.698162
299.602	0.698076
299.631	0.698001
299.658	0.697955
299.684	0.697944
299.709	0.697972
299.732	0.69803
299.753	0.698081
299.766	0.69818
299.777	0.698295
299.787	0.698549
299.796	0.698699
299.803	0.698802
299.81	0.698933
299.811	0.699065
299.81	0.699125
299.803	0.6992
299.798	0.699268
299.792	0.69935
299.783	0.6994
299.777	0.699441
299.774	0.699454
299.772	0.699445
299.771	0.699393
299.771	0.699316
299.775	0.699211
299.78	0.699064
299.788	0.698849
299.797	0.698602
299.811	0.698332
299.828	0.698061
299.843	0.697778
299.85	0.697488
299.852	0.697195
299.849	0.696927
299.839	0.696569
299.827	0.696583
299.814	0.696362
299.806	0.696172
299.799	0.696003
299.789	0.695859
299.777	0.695776
299.762	0.695707
299.749	0.695666
299.737	0.695658
299.732	0.695667
299.734	0.695718
299.74	0.695787
299.756	0.695879
299.775	0.696002
299.798	0.696157
299.825	0.696369
299.854	0.696607
299.886	0.696889
299.917	0.697217
299.945	0.697561
299.966	0.697903
299.985	0.69824
300.001	0.698572
300.01	0.698891
300.016	0.699164
300.03	0.699469
300.048	0.699719
300.067	0.699953
300.084	0.700153
300.098	0.700331
300.111	0.700474
300.121	0.700567
300.13	0.700672
300.135	0.700733
300.136	0.70074
300.138	0.700729
300.144	0.700688
300.15	0.700626
300.162	0.700529
300.176	0.700446
300.192	0.700348
300.204	0.700256
300.218	0.700154
300.226	0.700065
300.228	0.699959
300.226	0.699858
300.22	0.699776
300.216	0.699718
300.214	0.6997
300.215	0.699739
300.217	0.699734
300.222	0.699727
300.228	0.699666
300.239	0.699583
300.251	0.699496
300.269	0.699368
300.289	0.699204
300.312	0.699035
300.339	0.698848
300.368	0.698679
300.396	0.698504
300.426	0.698366
300.455	0.698216
300.483	0.698058
300.505	0.697925
300.519	0.697796
300.532	0.697686
300.549	0.697597
300.569	0.697519
300.59	0.697459
300.616	0.697401
300.642	0.697396
300.669	0.697373
300.693	0.697452
300.715	0.697349
300.733	0.898737
300.752	0.898801
300.768	0.898968
300.785	0.89907
300.81	0.899201
300.839	0.899369
300.867	0.899572
300.892	0.899773
300.914	0.899994
300.928	0.900209
300.933	0.900421
300.93	0.900633
300.927	0.900832
300.924	0.901027
300.921	0.901191
300.918	0.90136
300.918	0.90155
300.918	0.901708
300.92	0.901855
300.924	0.901996
300.929	0.902112
300.937	0.902202
300.943	0.902263
300.952	0.902229
300.964	0.902255
300.973	0.902162
300.978	0.902067
300.979	0.901878
300.975	0.901646
300.966	0.901363
300.948	0.901038
300.925	0.900721
300.901	0.900414
300.883	0.900113
300.87	0.899837
300.86	0.899571
300.852	0.899351
300.842	0.899144
300.828	0.898979
300.811	0.898838
300.794	0.898721
300.779	0.898632
300.763	0.898557
300.752	0.898499
300.748	0.898425
300.748	0.898383
300.752	0.898344
300.756	0.898308
300.759	0.898279