Temperature Strain
303.712	0.472153
303.713	0.472153
303.714	0.472185
303.714	0.472283
303.713	0.472434
303.71	0.472645
303.703	0.47287
303.693	0.47312
303.679	0.473364
303.666	0.47358
303.656	0.473786
303.65	0.473973
303.647	0.474122
303.642	0.474255
303.638	0.474363
303.635	0.474438
303.632	0.47448
303.623	0.474511
303.608	0.47452
303.589	0.474501
303.562	0.474385
303.533	0.474303
303.508	0.474193
303.483	0.474056
303.455	0.473928
303.429	0.473794
303.404	0.473662
303.38	0.473551
303.355	0.473472
303.333	0.473416
303.307	0.473378
303.276	0.473385
303.247	0.473427
303.22	0.473513
303.194	0.473649
303.172	0.473822
303.154	0.474004
303.136	0.47417
303.113	0.47433
303.097	0.474401
303.081	0.474544
303.06	0.474612
303.032	0.474637
303	0.474595
302.965	0.474544
302.928	0.474466
302.894	0.474343
302.859	0.474183
302.824	0.473975
302.791	0.473722
302.758	0.473433
302.723	0.473098
302.687	0.472742
302.654	0.472381
302.618	0.472
302.579	0.471621
302.537	0.471266
302.496	0.470947
302.454	0.470574
302.415	0.470348
302.379	0.470205
302.345	0.470152
302.313	0.470269
302.281	0.470391
302.254	0.470571
302.227	0.470777
302.198	0.471017
302.171	0.471252
302.139	0.471466
302.103	0.47164
302.064	0.471758
302.017	0.47183
301.966	0.471843
301.912	0.47179
301.859	0.471701
301.805	0.471539
301.75	0.471325
301.694	0.471047
301.642	0.470811
301.591	0.47057
301.544	0.470347
301.505	0.470133
301.471	0.469964
301.441	0.469847
301.41	0.469766
301.374	0.469703
301.335	0.469654
301.291	0.469649
301.243	0.46967
301.189	0.469697
301.127	0.469734
301.056	0.469793
300.98	0.469849
300.901	0.469903
300.819	0.469967
300.743	0.470025
300.671	0.47015
300.6	0.470178
300.53	0.470194
300.464	0.470194
300.398	0.470182
300.333	0.470236
300.267	0.470209
300.202	0.47013
300.135	0.470003
300.069	0.469802
300.002	0.46957
299.932	0.469255
299.86	0.468952
299.786	0.468641
299.709	0.468332
299.631	0.468026
299.55	0.467751
299.468	0.467498
299.386	0.467379
299.304	0.467249
299.223	0.467173
299.143	0.467156
299.063	0.467231
298.983	0.467353
298.906	0.467565
298.831	0.467775
298.763	0.468002
298.693	0.468225
298.621	0.468432
298.546	0.468615
298.469	0.468786
298.389	0.468931
298.302	0.469059
298.217	0.469155
298.13	0.469227
298.041	0.469247
297.95	0.469455
297.856	0.469402
297.756	0.469287
297.653	0.469143
297.546	0.468988
297.436	0.468836
297.324	0.468687
297.208	0.468594
297.091	0.46846
296.974	0.46834
296.853	0.468235
296.729	0.468167
296.603	0.468093
296.476	0.468034
296.349	0.467989
296.22	0.467952
296.092	0.467925
295.966	0.467907
295.843	0.46789
295.721	0.467884
295.6	0.467826
295.474	0.467821
295.341	0.46785
295.204	0.467896
295.064	0.467923
294.923	0.467987
294.781	0.468138
294.641	0.46817
294.507	0.468152
294.375	0.46807
294.247	0.467874
294.121	0.467642
294.001	0.467364
293.888	0.467051
293.783	0.466723
293.685	0.466397
293.594	0.466086
293.506	0.465809
293.419	0.46552
293.326	0.465367
293.23	0.465251
293.128	0.46521
293.017	0.465234
292.9	0.465326
292.779	0.465476
292.662	0.465691
292.545	0.465884
292.43	0.466084
292.315	0.466279
292.199	0.466466
292.079	0.466569
291.96	0.466633
291.84	0.466637
291.718	0.466589
291.598	0.466487
291.48	0.466321
291.362	0.466109
291.242	0.465999
291.12	0.46575
290.998	0.465486
290.877	0.46524
290.759	0.465019
290.641	0.464825
290.524	0.464701
290.406	0.464559
290.286	0.464551
290.167	0.464585
290.048	0.464648
289.931	0.46475
289.815	0.464858
289.699	0.464967
289.585	0.46507
289.465	0.465161
289.342	0.465243
289.215	0.465331
289.087	0.46545
288.959	0.465521
288.829	0.465527
288.706	0.465553
288.586	0.465558
288.468	0.465555
288.351	0.465565
288.238	0.465445
288.124	0.465367
288.007	0.46526
287.891	0.46511
287.779	0.464885
287.671	0.464626
287.559	0.464326
287.446	0.463986
287.332	0.463619
287.218	0.463236
287.102	0.462837
286.984	0.462437
286.865	0.462033
286.745	0.461645
286.63	0.461218
286.519	0.460879
286.416	0.460624
286.316	0.460448
286.218	0.460101
286.119	0.46011
286.02	0.460239
285.919	0.460442
285.813	0.460699
285.704	0.460974
285.593	0.461258
285.478	0.461544
285.361	0.461794
285.238	0.462022
285.114	0.462204
284.985	0.462345
284.857	0.462423
284.728	0.462449
284.603	0.462429
284.478	0.46238
284.355	0.462302
284.236	0.462213
284.123	0.462107
284.013	0.46203
283.902	0.462005
283.791	0.461922
283.678	0.461809
283.565	0.461679
283.453	0.461541
283.346	0.461358
283.241	0.461158
283.138	0.460978
283.039	0.460797
282.938	0.460653
282.836	0.460541
282.731	0.460461
282.624	0.460415
282.519	0.460254
282.414	0.460262
282.31	0.460279
282.205	0.460299
282.101	0.460324
281.995	0.460416
281.888	0.460403
281.781	0.460375
281.673	0.460316
281.564	0.4602
281.45	0.460047
281.334	0.45985
281.219	0.459631
281.108	0.459381
281.004	0.459112
280.904	0.458836
280.808	0.458563
280.711	0.45829
280.616	0.458034
280.522	0.457962
280.424	0.457763
280.324	0.457614
280.224	0.457539
280.12	0.457543
280.015	0.457506
279.911	0.457671
279.808	0.457909
279.703	0.458199
279.599	0.458514
279.493	0.458851
279.394	0.459143
279.297	0.459397
279.202	0.459616
279.107	0.459786
279.009	0.459921
278.906	0.45999
278.797	0.460025
278.683	0.460002
278.569	0.459887
278.457	0.45984
278.344	0.459766
278.234	0.459665
278.124	0.459572
278.015	0.459512
277.907	0.459485
277.797	0.459413
277.682	0.459341
277.567	0.45923
277.451	0.459071
277.336	0.458899
277.222	0.458701
277.11	0.458491
276.999	0.458296
276.892	0.458114
276.788	0.457959
276.685	0.457836
276.583	0.457756
276.482	0.457764
276.384	0.457788
276.285	0.45785
276.184	0.457955
276.08	0.458107
275.971	0.458292
275.861	0.45856
275.749	0.45878
275.637	0.458945
275.525	0.459054
275.409	0.459116
275.292	0.459046
275.176	0.458867
275.057	0.45859
274.937	0.458247
274.814	0.457841
274.692	0.45739
274.569	0.456901
274.446	0.456391
274.322	0.455882
274.197	0.455363
274.069	0.454856
273.939	0.4544
273.81	0.453976
273.681	0.453639
273.553	0.453368
273.422	0.453176
273.292	0.45303
273.167	0.452931
273.043	0.452842
272.919	0.45278
272.793	0.452745
272.665	0.452732
272.534	0.452733
272.404	0.452749
272.274	0.452759
272.146	0.452767
272.02	0.452608
271.898	0.452584
271.777	0.452544
271.654	0.4525
271.536	0.452465
271.418	0.452439
271.301	0.45256
271.184	0.452532
271.066	0.452506
270.946	0.452462
270.823	0.452411
270.699	0.452334
270.575	0.452281
270.451	0.452251
270.327	0.452247
270.203	0.452285
270.083	0.452358
269.967	0.452475
269.853	0.452637
269.736	0.452888
269.616	0.453146
269.494	0.45345
269.368	0.453797
269.241	0.454179
269.114	0.454573
268.985	0.454779
268.857	0.455101
268.734	0.455341
268.609	0.45546
268.486	0.455446
268.362	0.455283
268.236	0.454974
268.107	0.45454
267.976	0.453987
267.842	0.453345
267.703	0.452647
267.558	0.451886
267.408	0.451117
267.258	0.450345
267.108	0.449645
266.958	0.449016
266.805	0.448463
266.65	0.448014
266.494	0.447655
266.334	0.447459
266.175	0.447254
266.016	0.447137
265.857	0.447087
265.703	0.44706
265.549	0.447033
265.396	0.447046
265.242	0.447071
265.089	0.447113
264.936	0.447168
264.784	0.447233
264.63	0.447322
264.476	0.447407
264.325	0.447515
264.176	0.447593
264.031	0.447669
263.888	0.44775
263.745	0.447829
263.604	0.447913
263.463	0.447933
263.323	0.447964
263.182	0.447977
263.041	0.447965
262.902	0.447935
262.762	0.447897
262.623	0.447838
262.486	0.447778
262.35	0.447738
262.215	0.447742
262.076	0.447775
261.937	0.44784
261.796	0.447794
261.651	0.447897
261.505	0.448024
261.36	0.448167
261.214	0.448307
261.067	0.448442
260.915	0.448561
260.763	0.448635
260.61	0.448677
260.459	0.448669
260.309	0.448587
260.16	0.448459
260.011	0.448212
259.863	0.44788
259.714	0.447487
259.565	0.447052
259.42	0.446589
259.276	0.446135
259.134	0.445691
258.994	0.445218
258.855	0.444841
258.717	0.444528
258.579	0.444307
258.44	0.444179
258.3	0.444153
258.159	0.444377
258.017	0.444542
257.876	0.444752
257.736	0.444991
257.597	0.445218
257.458	0.445434
257.322	0.445636
257.187	0.445805
257.051	0.445946
256.918	0.446073
256.788	0.446174
256.661	0.446253
256.534	0.446283
256.407	0.446255
256.278	0.44621
256.15	0.446147
256.024	0.446061
255.901	0.445954
255.78	0.445821
255.661	0.445621
255.541	0.445438
255.419	0.445219
255.295	0.444966
255.167	0.444683
255.038	0.444381
254.906	0.44408
254.776	0.443801
254.647	0.443541
254.519	0.443342
254.391	0.443188
254.268	0.443068
254.144	0.443274
254.019	0.443249
253.89	0.443241
253.759	0.44328
253.626	0.443333
253.491	0.44341
253.355	0.44354
253.219	0.443677
253.083	0.443762
252.949	0.443777
252.815	0.443748
252.679	0.443646
252.544	0.443497
252.408	0.443288
252.272	0.443054
252.134	0.442806
251.993	0.442552
251.85	0.442316
251.706	0.442091
251.558	0.44175
251.409	0.441589
251.258	0.441494
251.103	0.441445
250.947	0.441443
250.794	0.441444
250.647	0.441544
250.502	0.441657
250.361	0.441811
250.222	0.441959
250.083	0.442108
249.947	0.442232
249.81	0.442324
249.673	0.442394
249.537	0.44244
249.398	0.442473
249.257	0.44248
249.116	0.442451
248.975	0.442384
248.832	0.442247
248.687	0.442113
248.539	0.441947
248.392	0.441748
248.246	0.441536
248.1	0.441358
247.953	0.441309
247.806	0.441134
247.655	0.440971
247.505	0.440819
247.355	0.44069
247.206	0.440585
247.058	0.440512
246.911	0.440449
246.765	0.440406
246.62	0.440379
246.472	0.440363
246.324	0.440343
246.177	0.440354
246.026	0.440435
245.874	0.440462
245.721	0.440481
245.568	0.440506
245.415	0.440518
245.261	0.440536
245.108	0.440611
244.956	0.44062
244.805	0.440586
244.658	0.44048
244.512	0.440298
244.367	0.440028
244.224	0.439684
244.08	0.439261
243.936	0.438794
243.792	0.438306
243.648	0.437822
243.502	0.437431
243.356	0.43697
243.21	0.436628
243.064	0.436393
242.917	0.436286
242.769	0.436321
242.623	0.436453
242.476	0.436674
242.329	0.436971
242.181	0.437282
242.032	0.437596
241.882	0.437918
241.732	0.438217
241.581	0.438471
241.43	0.438655
241.28	0.438739
241.13	0.438739
240.984	0.438652
240.844	0.438495
240.708	0.438267
240.579	0.437928
240.453	0.4376
240.331	0.437291
240.21	0.437
240.091	0.436764
239.97	0.43661
239.845	0.436229
239.72	0.436173
239.594	0.436202
239.467	0.436267
239.336	0.436373
239.203	0.436547
239.068	0.43671
238.932	0.436901
238.794	0.437117
238.659	0.437379
238.522	0.437655
238.384	0.437932
238.245	0.43822
238.108	0.438568
237.975	0.438851
237.843	0.439112
237.711	0.439368
237.578	0.439607
237.448	0.439861
237.318	0.44025
237.19	0.440466
237.065	0.440598
236.939	0.440671
236.809	0.440674
236.679	0.440639
236.547	0.440475
236.415	0.440189
236.282	0.439889
236.144	0.439561
236.01	0.4392
235.878	0.438833
235.749	0.438466
235.621	0.438154
235.496	0.437835
235.371	0.437552
235.246	0.437326
235.121	0.437165
234.996	0.437078
234.87	0.437059
234.744	0.437034
234.617	0.437021
234.487	0.437004
234.352	0.436969
234.213	0.436865
234.069	0.436745
233.924	0.436599
233.774	0.436421
233.621	0.436214
233.463	0.435989
233.306	0.435757
233.149	0.435515
232.996	0.435272
232.844	0.435073
232.694	0.434943
232.543	0.43486
232.391	0.434849
232.241	0.434861
232.088	0.434909
231.937	0.435075
231.786	0.435313
231.638	0.435603
231.489	0.435919
231.34	0.436258
231.193	0.436602
231.047	0.436983
230.902	0.437375
230.757	0.437785
230.612	0.438244
230.467	0.438707
230.32	0.439188
230.174	0.439717
230.028	0.440275
229.881	0.440848
229.733	0.441427
229.586	0.441908
229.439	0.442462
229.291	0.442909
229.142	0.443252
228.992	0.443466
228.844	0.44352
228.695	0.443461
228.545	0.443293
228.391	0.443048
228.233	0.442732
228.07	0.442365
227.906	0.44194
227.741	0.441511
227.575	0.441112
227.409	0.440794
227.239	0.440582
227.071	0.440499
226.903	0.440548
226.734	0.440692
226.565	0.440978
226.397	0.441413
226.231	0.441859
226.065	0.442326
225.898	0.442792
225.732	0.443221
225.564	0.443602
225.396	0.444073
225.228	0.444386
225.062	0.444636
224.898	0.444865
224.735	0.445073
224.573	0.445269
224.412	0.445417
224.254	0.445523
224.097	0.445594
223.938	0.445611
223.781	0.445588
223.623	0.445539
223.467	0.445475
223.31	0.44533
223.154	0.445219
222.997	0.445107
222.841	0.444988
222.688	0.44487
222.536	0.444692
222.388	0.444562
222.243	0.444476
222.104	0.444463
221.971	0.444485
221.84	0.444626
221.711	0.444856
221.581	0.445162
221.448	0.445587
221.313	0.446012
221.178	0.446476
221.044	0.446961
220.91	0.447458
220.773	0.44796
220.64	0.448417
220.504	0.448893
220.368	0.449338
220.23	0.449735
220.093	0.45011
219.956	0.450402
219.816	0.450695
219.673	0.451008
219.528	0.451368
219.379	0.451807
219.227	0.452319
219.071	0.452918
218.91	0.453587
218.745	0.454317
218.577	0.455097
218.408	0.455926
218.241	0.456791
218.078	0.457679
217.919	0.458591
217.761	0.459622
217.605	0.460563
217.449	0.461498
217.292	0.462451
217.136	0.463423
216.984	0.464429
216.839	0.465394
216.699	0.466324
216.564	0.467218
216.428	0.468071
216.294	0.468879
216.163	0.469642
216.031	0.470372
215.904	0.471032
215.776	0.471651
215.649	0.472242
215.522	0.472779
215.395	0.47332
215.267	0.473749
215.138	0.474257
215.008	0.474791
214.881	0.47537
214.755	0.476037
214.63	0.476765
214.507	0.477617
214.383	0.478575
214.26	0.479637
214.138	0.480817
214.014	0.482089
213.889	0.483461
213.764	0.48491
213.637	0.486431
213.509	0.488014
213.382	0.489645
213.255	0.491315
213.126	0.49301
212.997	0.494711
212.867	0.496306
212.738	0.497951
212.61	0.499568
212.482	0.501168
212.355	0.502781
212.229	0.504391
212.104	0.506029
211.979	0.507707
211.853	0.509426
211.726	0.511136
211.601	0.512855
211.477	0.514574
211.355	0.516171
211.232	0.517885
211.109	0.519587
210.987	0.52124
210.865	0.522837
210.743	0.524363
210.623	0.525846
210.503	0.527287
210.385	0.528689
210.266	0.530087
210.149	0.531491
210.031	0.532905
209.916	0.534329
209.801	0.5358
209.688	0.537284
209.576	0.538774
209.466	0.54025
209.358	0.541723
209.254	0.543236
209.153	0.544691
209.056	0.54613
208.959	0.547541
208.863	0.548973
208.764	0.550346
208.66	0.551715
208.552	0.553102
208.443	0.554729
208.334	0.556194
208.226	0.557682
208.119	0.559219
208.013	0.560807
207.905	0.562449
207.797	0.564161
207.689	0.565922
207.581	0.567731
207.475	0.56958
207.369	0.571434
207.262	0.573328
207.155	0.575243
207.046	0.577154
206.935	0.579083
206.822	0.581045
206.71	0.583061
206.599	0.585135
206.486	0.58729
206.372	0.589579
206.257	0.592023
206.142	0.594659
206.026	0.597504
205.909	0.60058
205.788	0.603936
205.669	0.607402
205.548	0.61117
205.428	0.615129
205.308	0.619227
205.188	0.623412
205.071	0.627666
204.954	0.631979
204.839	0.63633
204.724	0.640697
204.61	0.645072
204.497	0.649453
204.388	0.653844
204.277	0.658229
204.166	0.662742
204.056	0.667136
203.943	0.671547
203.83	0.675982
203.717	0.680442
203.603	0.685023
203.487	0.689523
203.366	0.694011
203.242	0.698436
203.114	0.702781
202.981	0.707091
202.843	0.7113
202.702	0.715439
202.56	0.719527
202.417	0.723554
202.274	0.727578
202.131	0.731583
201.988	0.735604
201.845	0.739623
201.702	0.743417
201.559	0.747464
201.417	0.751539
201.277	0.755658
201.136	0.759833
200.995	0.764164
200.855	0.768474
200.716	0.772826
200.579	0.777196
200.441	0.781566
200.302	0.785887
200.165	0.790171
200.029	0.794488
199.894	0.798692
199.759	0.802916
199.624	0.807171
199.491	0.811471
199.358	0.81582
199.225	0.820229
199.092	0.824733
198.958	0.829386
198.824	0.834109
198.688	0.838968
198.553	0.843955
198.416	0.849083
198.275	0.854312
198.133	0.859642
197.988	0.865029
197.841	0.870462
197.691	0.875914
197.54	0.881353
197.385	0.886802
197.229	0.892254
197.071	0.897725
196.912	0.903193
196.75	0.90866
196.587	0.914125
196.423	0.919612
196.259	0.925287
196.095	0.931043
195.932	0.93704
195.769	0.943304
195.609	0.949841
195.451	0.956501
195.294	0.96363
195.139	0.971092
194.984	0.978864
194.83	0.986928
194.675	0.995288
194.52	1.00392
194.363	1.01285
194.207	1.02207
194.054	1.03155
193.901	1.04127
193.748	1.05125
193.597	1.06142
193.443	1.07176
193.286	1.08221
193.13	1.09267
192.972	1.10294
192.812	1.11331
192.653	1.12361
192.493	1.13378
192.336	1.14383
192.18	1.15371
192.028	1.16341
191.876	1.17293
191.73	1.18218
191.588	1.19126
191.449	1.20012
191.311	1.20879
191.173	1.21729
191.034	1.22566
190.894	1.23396
190.754	1.2422
190.61	1.25043
190.461	1.25865
190.309	1.26691
190.154	1.27523
189.997	1.28359
189.841	1.29201
189.684	1.30036
189.528	1.30891
189.37	1.31751
189.21	1.32619
189.05	1.33486
188.886	1.34353
188.722	1.3522
188.559	1.36084
188.397	1.36949
188.236	1.37812
188.075	1.38673
187.912	1.39531
187.748	1.40387
187.584	1.41237
187.42	1.42084
187.257	1.42925
187.097	1.43761
186.936	1.4459
186.776	1.45417
186.621	1.46267
186.469	1.47092
186.321	1.47916
186.174	1.48743
186.03	1.4957
185.889	1.50398
185.75	1.51226
185.613	1.52057
185.479	1.52889
185.345	1.53722
185.211	1.54559
185.08	1.55402
184.951	1.56246
184.822	1.57112
184.693	1.57993
184.565	1.5889
184.438	1.59807
184.311	1.60743
184.181	1.61698
184.052	1.6267
183.92	1.63661
183.788	1.64668
183.655	1.65692
183.52	1.66736
183.388	1.67799
183.255	1.68885
183.121	1.69988
182.986	1.7111
182.849	1.72251
182.708	1.73411
182.566	1.7459
182.425	1.75788
182.285	1.77003
182.148	1.78234
182.013	1.79479
181.88	1.80737
181.75	1.82005
181.622	1.83277
181.498	1.84534
181.375	1.85785
181.256	1.87012
181.137	1.88213
181.019	1.89385
180.899	1.90521
180.777	1.91631
180.656	1.9271
180.534	1.93756
180.413	1.94768
180.292	1.95746
180.171	1.96691
180.051	1.97601
179.934	1.98479
179.819	1.99328
179.703	2.00149
179.586	2.00947
179.468	2.01724
179.347	2.02483
179.225	2.0323
179.106	2.03968
178.991	2.04717
178.876	2.0545
178.765	2.06185
178.656	2.06922
178.545	2.0766
178.434	2.08403
178.324	2.09152
178.213	2.09902
178.106	2.10659
177.999	2.1142
177.891	2.12187
177.778	2.12957
177.666	2.13727
177.554	2.14498
177.443	2.15265
177.333	2.1603
177.223	2.1679
177.116	2.17548
177.008	2.18301
176.9	2.19048
176.793	2.19796
176.687	2.20535
176.581	2.21272
176.475	2.22006
176.367	2.22739
176.259	2.23466
176.153	2.24195
176.048	2.24922
175.944	2.25648
175.839	2.26372
175.731	2.27093
175.624	2.27812
175.518	2.28527
175.407	2.29241
175.295	2.29953
175.183	2.30664
175.07	2.31386
174.957	2.32095
174.844	2.32805
174.733	2.33517
174.62	2.3422
174.509	2.34932
174.399	2.3565
174.289	2.36372
174.179	2.37095
174.07	2.37823
173.961	2.3855
173.852	2.39278
173.744	2.40006
173.637	2.40734
173.532	2.41466
173.425	2.42199
173.318	2.42931
173.211	2.43661
173.103	2.44387
172.995	2.45106
172.885	2.45819
172.777	2.46524
172.669	2.47219
172.561	2.47905
172.454	2.48582
172.348	2.49245
172.243	2.49904
172.137	2.50554
172.032	2.51193
171.926	2.51823
171.823	2.52436
171.72	2.53038
171.619	2.5363
171.52	2.5421
171.423	2.54781
171.326	2.55338
171.233	2.55887
171.139	2.56428
171.046	2.56961
170.953	2.57487
170.86	2.58008
170.767	2.58525
170.671	2.59038
170.574	2.59548
170.476	2.60062
170.379	2.60574
170.283	2.61086
170.186	2.61597
170.09	2.6211
169.997	2.62619
169.908	2.63127
169.818	2.63632
169.726	2.64138
169.634	2.64642
169.54	2.65144
169.444	2.65647
169.344	2.66148
169.243	2.66649
169.141	2.67148
169.033	2.67644
168.924	2.68136
168.814	2.68625
168.705	2.69108
168.597	2.69586
168.488	2.70058
168.38	2.70524
168.27	2.70982
168.158	2.71435
168.046	2.71882
167.936	2.72318
167.826	2.72748
167.713	2.73174
167.603	2.73595
167.493	2.74012
167.384	2.74426
167.273	2.74838
167.162	2.75252
167.051	2.75669
166.936	2.76091
166.819	2.76515
166.699	2.76943
166.575	2.77372
166.449	2.77806
166.321	2.78247
166.194	2.7869
166.067	2.79149
165.939	2.79619
165.811	2.80096
165.681	2.80584
165.551	2.8108
165.422	2.81586
165.292	2.82102
165.161	2.82626
165.03	2.83161
164.897	2.83706
164.764	2.84265
164.63	2.84835
164.494	2.85418
164.356	2.86012
164.219	2.86616
164.077	2.87217
163.935	2.87838
163.795	2.88463
163.652	2.89089
163.51	2.89726
163.368	2.90352
163.226	2.90971
163.086	2.91586
162.946	2.92194
162.805	2.92788
162.665	2.93382
162.525	2.93969
162.387	2.94549
162.248	2.95122
162.108	2.95687
161.966	2.96245
161.824	2.96796
161.682	2.97337
161.54	2.97868
161.396	2.98385
161.251	2.9889
161.104	2.9938
160.956	2.99855
160.808	3.00318
160.659	3.0077
160.51	3.01203
160.358	3.01624
160.207	3.02033
160.056	3.02431
159.905	3.02816
159.752	3.03189
159.601	3.0355
159.45	3.039
159.298	3.04237
159.148	3.04562
158.997	3.0488
158.845	3.05185
158.692	3.05479
158.539	3.05762
158.386	3.06037
158.231	3.06301
158.076	3.06564
157.92	3.06811
157.766	3.07058
157.612	3.07298
157.459	3.07541
157.306	3.07782
157.155	3.08025
157.002	3.08266
156.85	3.08512
156.7	3.08756
156.549	3.09002
156.398	3.09249
156.248	3.09498
156.099	3.09747
155.95	3.09998
155.8	3.1025
155.649	3.10505
155.498	3.10763
155.346	3.11027
155.192	3.11299
155.038	3.11578
154.886	3.11866
154.734	3.12165
154.583	3.12473
154.432	3.1279
154.28	3.13117
154.129	3.13448
153.978	3.13783
153.829	3.14126
153.679	3.14471
153.53	3.14824
153.382	3.15174
153.234	3.15527
153.086	3.15883
152.939	3.1624
152.793	3.16598
152.644	3.16956
152.497	3.17337
152.35	3.17695
152.204	3.18052
152.057	3.1841
151.909	3.18763
151.76	3.19111
151.611	3.1945
151.462	3.19777
151.312	3.20089
151.161	3.20387
151.011	3.2067
150.86	3.20936
150.71	3.21188
150.561	3.21425
150.41	3.21662
150.257	3.21875
150.103	3.22078
149.95	3.22269
149.796	3.22449
149.639	3.2262
149.48	3.22781
149.322	3.2294
149.163	3.23087
149.007	3.23228
148.851	3.23366
148.692	3.23504
148.532	3.23631
148.374	3.23768
148.213	3.23904
148.05	3.24036
147.89	3.24167
147.73	3.243
147.571	3.24426
147.412	3.24552
147.252	3.24676
147.092	3.248
146.932	3.24922
146.773	3.25044
146.617	3.25168
146.461	3.2529
146.306	3.25415
146.152	3.25535
145.998	3.25663
145.845	3.25792
145.692	3.25925
145.54	3.26061
145.388	3.26193
145.235	3.26334
145.084	3.26471
144.933	3.26608
144.783	3.26741
144.634	3.2687
144.488	3.27003
144.346	3.27137
144.207	3.27272
144.07	3.27409
143.936	3.2755
143.804	3.27692
143.673	3.27838
143.54	3.27988
143.407	3.28152
143.273	3.28309
143.139	3.28472
143.005	3.28632
142.871	3.28807
142.736	3.28982
142.602	3.2916
142.466	3.29337
142.33	3.29513
142.193	3.29687
142.057	3.2986
141.921	3.30029
141.787	3.30197
141.652	3.30364
141.518	3.30528
141.384	3.30695
141.249	3.30863
141.112	3.31033
140.975	3.31203
140.839	3.31376
140.704	3.31548
140.568	3.3172
140.434	3.31888
140.298	3.32054
140.164	3.32216
140.03	3.32369
139.894	3.32515
139.76	3.32652
139.627	3.32776
139.496	3.32891
139.369	3.32994
139.244	3.33086
139.119	3.33164
138.996	3.33226
138.876	3.3328
138.757	3.33326
138.638	3.33358
138.52	3.33376
138.401	3.33394
138.28	3.33408
138.164	3.33398
138.047	3.33409
137.931	3.33421
137.818	3.33436
137.705	3.33452
137.592	3.33466
137.479	3.33485
137.366	3.33505
137.253	3.33527
137.141	3.3355
137.03	3.33574
136.92	3.33602
136.81	3.3363
136.699	3.33661
136.587	3.33684
136.474	3.33721
136.36	3.33759
136.246	3.338
136.131	3.33844
136.016	3.33889
135.902	3.33938
135.787	3.33984
135.671	3.34039
135.554	3.34096
135.439	3.34154
135.324	3.34214
135.206	3.34285
135.09	3.34347
134.972	3.34413
134.852	3.3448
134.732	3.34549
134.609	3.34619
134.483	3.34691
134.358	3.34756
134.227	3.34833
134.095	3.34911
133.963	3.34993
133.829	3.35077
133.694	3.35164
133.56	3.35256
133.426	3.35347
133.292	3.35446
133.158	3.3554
133.025	3.35634
132.893	3.35726
132.76	3.35818
132.627	3.35908
132.493	3.35998
132.36	3.36088
132.227	3.36178
132.094	3.36268
131.962	3.36361
131.832	3.36446
131.7	3.36528
131.569	3.3661
131.437	3.3669
131.305	3.36768
131.173	3.36851
131.04	3.36928
130.908	3.37003
130.775	3.37063
130.642	3.3713
130.509	3.37192
130.376	3.3725
130.242	3.373
130.107	3.37344
129.972	3.3738
129.837	3.37413
129.701	3.37443
129.564	3.37465
129.427	3.37485
129.291	3.37503
129.154	3.3752
129.018	3.37535
128.882	3.37553
128.744	3.37566
128.607	3.37566
128.47	3.37573
128.332	3.37579
128.195	3.3758
128.058	3.3758
127.92	3.37575
127.782	3.37568
127.644	3.37558
127.508	3.37547
127.371	3.37535
127.233	3.37523
127.097	3.375
126.961	3.37498
126.824	3.37498
126.689	3.37505
126.552	3.3752
126.413	3.37543
126.274	3.37576
126.134	3.37611
125.992	3.3765
125.851	3.37696
125.711	3.3775
125.571	3.37798
125.429	3.37845
125.286	3.37889
125.14	3.37929
124.992	3.3797
124.844	3.38006
124.696	3.3804
124.547	3.38082
124.4	3.38116
124.255	3.38154
124.109	3.38195
123.966	3.38241
123.823	3.38293
123.681	3.38345
123.541	3.38403
123.399	3.38463
123.258	3.38521
123.116	3.3858
122.972	3.38638
122.827	3.38693
122.681	3.38744
122.534	3.38792
122.388	3.38836
122.24	3.38874
122.091	3.38909
121.939	3.38931
121.788	3.38954
121.635	3.38977
121.481	3.38998
121.328	3.3902
121.174	3.39044
121.022	3.39078
120.869	3.39107
120.718	3.3914
120.567	3.39173
120.418	3.39213
120.267	3.39242
120.119	3.39271
119.973	3.39296
119.824	3.39318
119.677	3.39336
119.53	3.39348
119.383	3.39361
119.237	3.39369
119.091	3.39374
118.945	3.39378
118.799	3.39384
118.653	3.39385
118.507	3.39387
118.362	3.39389
118.216	3.39393
118.07	3.39394
117.923	3.39395
117.776	3.39392
117.63	3.39391
117.484	3.3939
117.338	3.39387
117.191	3.39382
117.045	3.39374
116.9	3.3937
116.755	3.39357
116.611	3.39345
116.466	3.39335
116.321	3.39326
116.173	3.3932
116.025	3.39316
115.878	3.39316
115.729	3.39319
115.581	3.39324
115.434	3.39333
115.287	3.39342
115.141	3.39359
114.995	3.39378
114.848	3.39399
114.7	3.39421
114.555	3.39445
114.408	3.39465
114.263	3.3949
114.119	3.39526
113.976	3.39554
113.834	3.39584
113.692	3.39616
113.551	3.39649
113.409	3.39682
113.268	3.39715
113.127	3.39745
112.988	3.39775
112.85	3.39803
112.711	3.39827
112.572	3.39862
112.433	3.39879
112.293	3.39898
112.154	3.39915
112.015	3.39932
111.874	3.39958
111.733	3.3997
111.593	3.39989
111.453	3.40011
111.314	3.40037
111.176	3.40067
111.041	3.40099
110.907	3.40137
110.774	3.40177
110.641	3.40218
110.506	3.40258
110.371	3.40296
110.236	3.40332
110.1	3.4036
109.96	3.40389
109.822	3.40413
109.681	3.40426
109.541	3.40444
109.4	3.40451
109.258	3.40457
109.116	3.40461
108.973	3.40465
108.829	3.40471
108.686	3.40483
108.543	3.40495
108.4	3.40511
108.258	3.40528
108.117	3.40546
107.977	3.40565
107.838	3.40584
107.699	3.40602
107.559	3.40628
107.42	3.40647
107.28	3.40661
107.14	3.40669
106.998	3.40676
106.854	3.40679
106.71	3.4067
106.564	3.4066
106.418	3.40653
106.272	3.40645
106.124	3.4064
105.978	3.4064
105.83	3.40643
105.684	3.4065
105.54	3.4066
105.394	3.40673
105.25	3.40689
105.104	3.40707
104.959	3.40727
104.814	3.40746
104.667	3.4078
104.52	3.40794
104.375	3.4081
104.231	3.40825
104.089	3.40837
103.945	3.40846
103.803	3.40855
103.661	3.40866
103.523	3.40873
103.386	3.40879
103.25	3.40889
103.115	3.40898
102.982	3.4091
102.849	3.40923
102.717	3.40927
102.585	3.40942
102.452	3.40958
102.318	3.40973
102.184	3.40995
102.05	3.4101
101.916	3.41024
101.782	3.41039
101.647	3.41054
101.514	3.4107
101.382	3.41085
101.252	3.41101
101.121	3.41116
100.991	3.41129
100.861	3.41138
100.731	3.41145
100.599	3.41149
100.467	3.41153
100.336	3.41153
100.205	3.41149
100.075	3.41143
99.9462	3.41122
99.8168	3.41116
99.688	3.4111
99.5608	3.41107
99.4326	3.41108
99.3039	3.41112
99.1746	3.41118
99.0446	3.41129
98.9131	3.41141
98.7829	3.41155
98.6524	3.41167
98.5221	3.41178
98.3917	3.41187
98.2602	3.41193
98.1309	3.41188
98.0008	3.4119
97.8698	3.41189
97.7371	3.41171
97.6034	3.41163
97.4702	3.41151
97.3368	3.4114
97.2027	3.41127
97.0693	3.41117
96.9368	3.4111
96.8045	3.41107
96.6741	3.41115
96.5445	3.41125
96.4163	3.41138
96.2887	3.41154
96.1615	3.41174
96.0361	3.41199
95.9097	3.41214
95.784	3.41235
95.6564	3.41254
95.5283	3.41268
95.3998	3.41279
95.2701	3.41289
95.1406	3.41288
95.0108	3.41287
94.8798	3.41284
94.75	3.41278
94.6203	3.41275
94.4899	3.41276
94.3586	3.41279
94.2266	3.41285
94.0942	3.41294
93.96	3.41306
93.8255	3.41322
93.6896	3.41343
93.5538	3.41363
93.4171	3.41384
93.2794	3.41405
93.141	3.41428
93.0017	3.41447
92.8629	3.41466
92.7238	3.4148
92.5855	3.41491
92.4481	3.41498
92.3108	3.41503
92.1738	3.41507
92.0361	3.41508
91.8986	3.41506
91.7618	3.41503
91.6247	3.41502
91.4884	3.415
91.3492	3.41484
91.2107	3.41485
91.0729	3.41486
90.9327	3.41488
90.7916	3.41488
90.6523	3.41504
90.5093	3.41503
90.3653	3.41502
90.221	3.41504
90.0773	3.41507
89.9321	3.41508
89.7864	3.41509
89.6399	3.41509
89.493	3.41502
89.3459	3.41502
89.1981	3.41502
89.0517	3.41499
88.905	3.41495
88.7608	3.41483
88.616	3.41478
88.472	3.41475
88.329	3.41471
88.1851	3.41467
88.0429	3.41466
87.8985	3.41464
87.7539	3.41463
87.6107	3.41465
87.4677	3.41471
87.3241	3.41481
87.1798	3.41496
87.0381	3.41514
86.8981	3.41525
86.7591	3.41549
86.6206	3.41574
86.4834	3.41599
86.3465	3.41638
86.2082	3.4166
86.0695	3.41676
85.9291	3.4169
85.7856	3.417
85.6432	3.41724
85.5	3.41733
85.3572	3.4174
85.2154	3.41752
85.0738	3.41765
84.9337	3.4178
84.7939	3.41798
84.6538	3.41819
84.5146	3.41844
84.3757	3.41868
84.2381	3.41895
84.1005	3.41921
83.9624	3.41958
83.8238	3.41983
83.6857	3.42005
83.5477	3.42023
83.4112	3.42038
83.2743	3.42046
83.137	3.42049
82.9996	3.42046
82.8625	3.42034
82.7261	3.42022
82.5888	3.42009
82.4519	3.41997
82.3132	3.41987
82.1746	3.41979
82.0355	3.41974
81.8966	3.41975
81.7575	3.41978
81.6181	3.41984
81.4791	3.41992
81.3404	3.41996
81.2005	3.42004
81.0631	3.4201
80.9241	3.42014
80.7876	3.42018
80.6493	3.42017
80.5107	3.4201
80.3734	3.42
80.2368	3.41988
80.0987	3.41974
79.9634	3.41961
79.8285	3.41949
79.6938	3.41939
79.5596	3.41937
79.4264	3.41932
79.2945	3.4193
79.1619	3.4193
79.0309	3.41929
78.8995	3.4193
78.7682	3.41931
78.6363	3.41932
78.5042	3.41932
78.371	3.41943
78.2377	3.41943
78.1034	3.41942
77.9692	3.41944
77.8356	3.41945
77.6999	3.41947
77.5649	3.4195
77.4311	3.41954
77.2968	3.41958
77.163	3.41956
77.0299	3.41959
76.8968	3.41963
76.7641	3.41956
76.6285	3.41963
76.4928	3.41971
76.3582	3.41978
76.2203	3.41987
76.0831	3.41996
75.9469	3.41999
75.8122	3.42013
75.6799	3.42035
75.5499	3.42049
75.4195	3.42064
75.2901	3.4208
75.1599	3.42098
75.029	3.42115
74.8979	3.42133
74.7651	3.4215
74.6336	3.42167
74.5037	3.42182
74.3741	3.4219
74.2449	3.42201
74.1147	3.42207
73.9847	3.42211
73.8549	3.42211
73.7247	3.4221
73.5944	3.42204
73.4635	3.42202
73.3324	3.42206
73.2017	3.42206
73.0711	3.42209
72.9398	3.42213
72.8086	3.42219
72.6762	3.42226
72.5452	3.42238
72.4141	3.4225
72.2833	3.42262
72.1531	3.42256
72.0227	3.42261
71.8929	3.42263
71.7633	3.42259
71.6337	3.42252
71.5053	3.4224
71.376	3.42226
71.247	3.42211
71.1152	3.42192
70.9835	3.42178
70.8505	3.42164
70.7181	3.42155
70.5845	3.4215
70.4508	3.42148
70.3166	3.42154
70.182	3.42163
70.0467	3.42176
69.9108	3.42194
69.7736	3.42215
69.6366	3.42239
69.4992	3.42258
69.362	3.42277
69.2242	3.42293
69.0857	3.42303
68.947	3.42309
68.809	3.42319
68.672	3.42319
68.5351	3.42314
68.399	3.42309
68.2622	3.42303
68.1254	3.42298
67.9876	3.42295
67.85	3.42297
67.7124	3.42303
67.5741	3.42315
67.4356	3.4233
67.2967	3.42349
67.1566	3.42371
67.016	3.42395
66.8742	3.42419
66.7289	3.42441
66.5836	3.4246
66.4384	3.42474
66.2912	3.42489
66.1459	3.42481
65.9993	3.42478
65.8524	3.42473
65.7052	3.42466
65.5563	3.42457
65.4077	3.4245
65.2582	3.42443
65.1088	3.42441
64.9595	3.42443
64.811	3.42436
64.6628	3.42442
64.5162	3.4245
64.3683	3.42459
64.2206	3.42469
64.0734	3.42478
63.9268	3.42487
63.7806	3.42496
63.6353	3.42502
63.4907	3.42513
63.3454	3.42518
63.1993	3.42522
63.0536	3.42522
62.9074	3.42521
62.7605	3.42517
62.6135	3.42514
62.4653	3.42511
62.3174	3.42506
62.1718	3.42512
62.0248	3.42504
61.8775	3.42494
61.7333	3.42485
61.5864	3.42476
61.4392	3.4247
61.2916	3.42463
61.1437	3.42459
60.9957	3.4246
60.8468	3.4246
60.6968	3.42459
60.5475	3.42461
60.3984	3.42466
60.2497	3.4247
60.102	3.42475
59.9553	3.42479
59.8091	3.42483
59.6641	3.42486
59.5188	3.42489
59.3756	3.42488
59.2329	3.42484
59.0904	3.42477
58.949	3.42465
58.8081	3.42452
58.6704	3.42438
58.5331	3.42422
58.3981	3.42406
58.2624	3.42388
58.1272	3.42372
57.9921	3.42357
57.8565	3.42343
57.7208	3.42331
57.5852	3.42322
57.4496	3.42316
57.3162	3.42313
57.1836	3.42313
57.0518	3.42314
56.9212	3.42322
56.7919	3.4234
56.6632	3.42353
56.5358	3.4237
56.4084	3.42387
56.2839	3.4241
56.1623	3.42436
56.0419	3.42464
55.9243	3.42496
55.8072	3.42529
55.6912	3.42565
55.5767	3.42605
55.4641	3.42647
55.3523	3.42688
55.242	3.42731
55.1334	3.42774
55.0254	3.42819
54.9191	3.42853
54.813	3.42891
54.7079	3.42926
54.6034	3.42961
54.4991	3.42986
54.3944	3.43007
54.2905	3.43022
54.1871	3.43031
54.0829	3.4303
53.9786	3.43025
53.874	3.43016
53.7702	3.43005
53.6657	3.42991
53.5629	3.42977
53.4612	3.42963
53.362	3.42949
53.2643	3.42937
53.1668	3.42927
53.0703	3.42915
52.9761	3.42916
52.8819	3.42912
52.7865	3.42908
52.6922	3.42904
52.5989	3.42901
52.5028	3.42898
52.4092	3.42894
52.3163	3.42888
52.2235	3.42881
52.1314	3.42873
52.0404	3.42864
51.9492	3.42854
51.861	3.42845
51.7723	3.42835
51.686	3.42826
51.6004	3.42817
51.5161	3.42811
51.4323	3.42807
51.3491	3.42807
51.2678	3.42811
51.1867	3.42815
51.1055	3.42825
51.0252	3.42836
50.9462	3.42848
50.8678	3.42868
50.7888	3.42879
50.7076	3.4289
50.6257	3.42899
50.5436	3.42912
50.4616	3.42929
50.3812	3.42945
50.301	3.42959
50.2207	3.42973
50.1431	3.42985
50.0636	3.42995
49.9858	3.42999
49.9093	3.43003
49.8313	3.43005
49.7538	3.43004
49.6768	3.43003
49.5996	3.43001
49.5218	3.42997
49.4441	3.42994
49.3679	3.42993
49.2908	3.42996
49.2123	3.42998
49.1368	3.43003
49.0606	3.43014
48.9849	3.43032
48.9095	3.43055
48.8345	3.43082
48.7601	3.43113
48.6866	3.43146
48.6129	3.43182
48.5383	3.43221
48.4632	3.4326
48.3896	3.43299
48.3161	3.43338
48.2431	3.43376
48.1702	3.43414
48.0974	3.43449
48.0255	3.43483
47.9529	3.43514
47.8805	3.43539
47.8083	3.4356
47.736	3.43567
47.665	3.43575
47.5929	3.43576
47.5215	3.43571
47.4504	3.43572
47.3795	3.43557
47.3075	3.4354
47.2348	3.4352
47.1637	3.43499
47.0923	3.43477
47.0208	3.43453
46.9504	3.43431
46.882	3.43408
46.8134	3.43384
46.7455	3.43357
46.6795	3.43328
46.6151	3.43296
46.5503	3.43262
46.4863	3.43226
46.4234	3.43185
46.3598	3.43146
46.2971	3.43107
46.2343	3.43068
46.1712	3.43029
46.1078	3.42996
46.0441	3.42959
45.9805	3.42924
45.9178	3.4288
45.8562	3.42847
45.7933	3.42817
45.7315	3.4279
45.6702	3.42768
45.6091	3.42751
45.5482	3.42737
45.4882	3.42727
45.4283	3.42724
45.3704	3.42729
45.3135	3.42743
45.2583	3.42766
45.2044	3.42795
45.1496	3.42831
45.0968	3.42874
45.0449	3.4292
44.9901	3.42969
44.9389	3.43022
44.8862	3.43075
44.8317	3.43128
44.7796	3.43188
44.7267	3.43241
44.675	3.43291
44.6233	3.43339
44.5728	3.43386
44.5231	3.43428
44.4741	3.43466
44.4255	3.43496
44.378	3.43519
44.3301	3.43535
44.2822	3.43544
44.2342	3.43547
44.1869	3.43536
44.1392	3.4353
44.092	3.43519
44.0445	3.43504
43.9968	3.43487
43.9495	3.43465
43.9035	3.43443
43.855	3.43421
43.8068	3.43397
43.7597	3.43375
43.7126	3.43354
43.6662	3.43333
43.6224	3.43314
43.579	3.43295
43.536	3.43277
43.4956	3.43252
43.4531	3.43234
43.4107	3.43219
43.3694	3.43205
43.3283	3.43195
43.2872	3.43182
43.2472	3.43172
43.2076	3.4316
43.1685	3.43143
43.1283	3.43121
43.0904	3.43095
43.053	3.43066
43.0154	3.43036
42.9772	3.43002
42.9403	3.42968
42.9034	3.42933
42.8659	3.42902
42.8283	3.42874
42.7918	3.42849
42.7575	3.42827
42.7224	3.42808
42.6893	3.42795
42.6564	3.42787
42.6241	3.42784
42.5939	3.42788
42.5635	3.42797
42.5342	3.4281
42.504	3.42828
42.4738	3.42853
42.4413	3.42881
42.4109	3.42897
42.3809	3.42922
42.3513	3.42943
42.3216	3.4296
42.2915	3.42972
42.2611	3.42979
42.2322	3.42981
42.2012	3.42976
42.1709	3.42968
42.1401	3.42957
42.1086	3.42947
42.0774	3.42937
42.0458	3.42927
42.0142	3.4292
41.9842	3.42915
41.9534	3.42912
41.9245	3.42919
41.897	3.42922
41.8686	3.42928
41.8412	3.42917
41.8138	3.42939
41.7869	3.42962
41.7599	3.42991
41.731	3.43034
41.7036	3.43068
41.6762	3.43104
41.6496	3.4314
41.6232	3.43175
41.5973	3.43206
41.5702	3.43235
41.5433	3.4326
41.5159	3.4328
41.4871	3.43293
41.4585	3.43298
41.4291	3.43294
41.3979	3.43283
41.3677	3.43266
41.338	3.4324
41.3087	3.43207
41.2775	3.4317
41.2466	3.43128
41.2157	3.43084
41.1822	3.43039
41.1501	3.42984
41.1183	3.42935
41.085	3.42887
41.0546	3.42839
41.0245	3.42794
40.9954	3.42755
40.9677	3.42725
40.9384	3.42703
40.9109	3.42691
40.8828	3.42685
40.8564	3.42691
40.8311	3.42704
40.8043	3.42724
40.7781	3.4275
40.7526	3.42779
40.7272	3.42811
40.7009	3.42846
40.6741	3.42881
40.6474	3.42917
40.62	3.42951
40.5926	3.42987
40.5631	3.4302
40.534	3.43052
40.5033	3.43083
40.4731	3.43112
40.4425	3.43141
40.4114	3.43168
40.3808	3.43203
40.349	3.43229
40.3175	3.43254
40.2882	3.43286
40.2593	3.43302
40.2299	3.4332
40.2027	3.43336
40.1734	3.43353
40.1455	3.43371
40.1179	3.43391
40.0908	3.43413
40.0619	3.43436
40.0351	3.4346
40.0083	3.43484
39.9816	3.43508
39.9558	3.43528
39.9303	3.43542
39.9045	3.4355
39.8785	3.43551
39.8536	3.43546
39.8281	3.43536
39.8019	3.43517
39.7746	3.4349
39.7482	3.43457
39.7218	3.43416
39.695	3.43369
39.6681	3.43306
39.6405	3.43252
39.6137	3.43191
39.5848	3.43129
39.5562	3.43063
39.5265	3.43002
39.4956	3.42943
39.465	3.42886
39.4353	3.42833
39.4031	3.42783
39.3725	3.42738
39.3429	3.427
39.3138	3.42668
39.2848	3.42644
39.2585	3.42627
39.2314	3.42616
39.2048	3.42613
39.1785	3.42616
39.1535	3.42624
39.128	3.42636
39.1027	3.42644
39.0776	3.42662
39.0521	3.42681
39.0264	3.42719
39.0004	3.42728
38.9748	3.42737
38.9495	3.4274
38.9235	3.42741
38.8966	3.42743
38.8719	3.42745
38.8452	3.42748
38.8194	3.42749
38.7926	3.42751
38.7663	3.42753
38.7404	3.42754
38.7149	3.42757
38.6896	3.42759
38.6644	3.42755
38.6404	3.4276
38.6173	3.42766
38.5939	3.42774
38.5712	3.42784
38.5491	3.42797
38.5252	3.42813
38.5029	3.42833
38.4806	3.42856
38.4581	3.42883
38.4366	3.42911
38.4148	3.42945
38.3924	3.42978
38.3714	3.43012
38.3512	3.43043
38.3285	3.43072
38.3077	3.43093
38.2855	3.43111
38.2622	3.43125
38.2403	3.43142
38.2192	3.43152
38.1987	3.43159
38.1786	3.43166
38.1611	3.43169
38.1428	3.4317
38.1245	3.43169
38.1067	3.43167
38.0896	3.43162
38.0726	3.43157
38.0548	3.4315
38.0377	3.43141
38.0207	3.43134
38.0031	3.43126
37.986	3.43119
37.9686	3.43114
37.9512	3.4311
37.9338	3.43108
37.916	3.43108
37.8984	3.4311
37.8809	3.43124
37.8636	3.43118
37.8475	3.43124
37.8304	3.43127
37.8148	3.43129
37.7987	3.43127
37.7818	3.43121
37.7674	3.43111
37.7526	3.43096
37.7363	3.43077
37.7201	3.43053
37.7033	3.43025
37.6882	3.42994
37.6729	3.42962
37.6582	3.4293
37.6438	3.42898
37.6293	3.42868
37.6151	3.4284
37.6007	3.42813
37.5868	3.4279
37.5731	3.42768
37.5606	3.42751
37.5478	3.42737
37.5349	3.42727
37.5212	3.42726
37.5072	3.42723
37.4926	3.42729
37.4783	3.42738
37.4645	3.42754
37.4509	3.42771
37.4378	3.4279
37.4242	3.42811
37.4108	3.42832
37.3968	3.42855
37.3836	3.42877
37.3712	3.42898
37.3591	3.42918
37.3474	3.42935
37.3358	3.42949
37.3248	3.42961
37.3137	3.4297
37.3022	3.42975
37.2926	3.42978
37.2815	3.4298
37.2724	3.42981
37.2647	3.4298
37.2559	3.42979
37.2473	3.42978
37.2388	3.42976
37.2309	3.4297
37.2227	3.42975
37.2155	3.42979
37.2068	3.42985
37.1999	3.42989
37.1908	3.42992
37.1818	3.42997
37.1715	3.43005
37.1609	3.43013
37.1504	3.43024
37.1379	3.43036
37.125	3.43048
37.1114	3.43067
37.0966	3.43079
37.0806	3.43089
37.0641	3.43099
37.0482	3.43106
37.031	3.43111
37.0135	3.43113
36.997	3.43112
36.9805	3.43107
36.9642	3.43099
36.9479	3.4309
36.9314	3.43078
36.9157	3.43066
36.8996	3.43046
36.8847	3.43029
36.8696	3.43011
36.8546	3.42996
36.8409	3.42987
36.8267	3.42977
36.8131	3.42961
36.7999	3.42949
36.7852	3.42938
36.7731	3.42929
36.7626	3.42923
36.752	3.4292
36.7423	3.4292
36.7325	3.42923
36.7233	3.42928
36.7145	3.42934
36.7053	3.42942
36.6964	3.4295
36.6866	3.42958
36.6791	3.42965
36.6712	3.4297
36.6635	3.42971
36.6546	3.4297
36.6468	3.42965
36.6403	3.42957
36.6343	3.42946
36.6295	3.4292
36.6258	3.42903
36.6223	3.42884
36.6195	3.42864
36.6168	3.42845
36.6141	3.42829
36.6123	3.42813
36.6109	3.42798
36.6094	3.42785
36.6075	3.42772
36.6056	3.42761
36.6021	3.42754
36.5978	3.4275
36.5956	3.4275
36.591	3.42753
36.587	3.42762
36.5826	3.42775
36.5787	3.4279
36.5735	3.42811
36.5687	3.42833
36.5632	3.42858
36.5585	3.42881
36.5535	3.42905
36.5478	3.42927
36.5408	3.42954
36.5332	3.4297
36.5261	3.4298
36.5193	3.42981
36.5121	3.42986
36.5068	3.42985
36.5019	3.42985
36.4971	3.42982
36.4921	3.42978
36.4873	3.42976
36.4835	3.42971
36.4796	3.42968
36.4763	3.42965
36.4726	3.42965
36.4699	3.42966
36.4676	3.42971
36.4658	3.4298
36.4653	3.42989
36.4644	3.43001
36.4637	3.43014
36.4634	3.43028
36.4634	3.43042
36.4633	3.43057
36.4636	3.43073
36.4635	3.43088
36.4638	3.43107
36.4633	3.43117
36.4631	3.43124
36.4624	3.43128
36.4615	3.43129
36.4595	3.43122
36.4583	3.43113
36.4575	3.43102
36.4567	3.4309
36.4561	3.43079
36.455	3.43068
36.4548	3.43055
36.4538	3.43043
36.4528	3.4303
36.4512	3.43016
36.4486	3.43002
36.4468	3.4299
36.4441	3.42977
36.4429	3.42967
36.44	3.42958
36.4378	3.42953
36.4352	3.42949
36.4328	3.42947
36.4293	3.42946
36.4245	3.42945
36.42	3.42953
36.415	3.42956
36.4092	3.42959
36.4033	3.42961
36.3955	3.42956
36.3891	3.42951
36.3821	3.42945
36.3751	3.42939
36.3676	3.4293
36.3595	3.42918
36.3508	3.42904
36.341	3.42888
36.3328	3.42868
36.3252	3.42846
36.3155	3.42824
36.3085	3.42802
36.3021	3.42779
36.2968	3.42756
36.2904	3.42733
36.2867	3.42711
36.2815	3.42689
36.2772	3.4267
36.2734	3.42653
36.2699	3.42636
36.2677	3.42622
36.266	3.42608
36.2657	3.42597
36.265	3.42586
36.2654	3.42575
36.2661	3.42565
36.2665	3.42555
36.2664	3.42543
36.2667	3.42532
36.2681	3.42523
36.2693	3.42516
36.2714	3.42511
36.2741	3.42509
36.2781	3.42511
36.2829	3.42519
36.2891	3.42531
36.2963	3.42549
36.3041	3.42571
36.3144	3.42598
36.3251	3.42629
36.3378	3.42663
36.3512	3.42701
36.3655	3.42741
36.3799	3.42784
36.3967	3.42828
36.4159	3.42869
36.4355	3.42911
36.457	3.42949
36.4801	3.42986
36.5046	3.43024
36.5309	3.43054
36.5591	3.43082
36.5867	3.43103
36.6179	3.43124
36.6501	3.43141
36.6842	3.43156
36.7202	3.4317
36.7565	3.43183
36.7936	3.43194
36.832	3.43202
36.8721	3.43211
36.9149	3.43217
36.9589	3.43221
37.0054	3.43225
37.0527	3.43227
37.1037	3.43231
37.155	3.43234
37.2084	3.43235
37.2646	3.43236
37.3234	3.43251
37.3826	3.43249
37.4432	3.43244
37.5073	3.43237
37.5723	3.43223
37.6394	3.43213
37.7088	3.43202
37.7784	3.43193
37.8492	3.43181
37.9216	3.43167
37.9949	3.43152
38.0695	3.43133
38.145	3.43112
38.221	3.43092
38.2978	3.43072
38.3765	3.43052
38.4557	3.43033
38.5358	3.43014
38.6168	3.42992
38.6982	3.42969
38.7821	3.42943
38.865	3.42915
38.9494	3.42878
39.0335	3.42846
39.119	3.42813
39.2053	3.4278
39.2921	3.42745
39.3821	3.42711
39.4719	3.42677
39.5628	3.42644
39.6554	3.42612
39.7491	3.42583
39.8434	3.42556
39.9401	3.42533
40.0366	3.42514
40.1338	3.42503
40.2314	3.42498
40.3282	3.42499
40.4265	3.42504
40.5247	3.42514
40.6237	3.42529
40.723	3.42546
40.8217	3.42566
40.9214	3.42597
41.02	3.42624
41.119	3.42653
41.2167	3.42688
41.3152	3.42721
41.4142	3.42755
41.5146	3.42789
41.6145	3.42823
41.7124	3.42855
41.8112	3.42887
41.9103	3.42918
42.0093	3.42947
42.1086	3.42976
42.2064	3.43003
42.3039	3.43028
42.4017	3.43052
42.4961	3.43073
42.5898	3.43092
42.6811	3.43107
42.7717	3.4312
42.8618	3.43128
42.9531	3.43131
43.0438	3.43124
43.1347	3.43111
43.2236	3.43087
43.3114	3.43055
43.3988	3.43014
43.4858	3.42964
43.57	3.42907
43.6565	3.42844
43.7401	3.42779
43.8239	3.42707
43.9094	3.4264
43.9935	3.42582
44.0775	3.42534
44.1592	3.4249
44.2426	3.4246
44.3248	3.4244
44.4057	3.42428
44.4864	3.42422
44.5672	3.42422
44.6465	3.42428
44.7263	3.42442
44.8068	3.4246
44.8872	3.42482
44.9685	3.42505
45.0502	3.4253
45.1304	3.42556
45.212	3.42581
45.2932	3.42602
45.3744	3.42626
45.4554	3.42648
45.5367	3.42667
45.6194	3.42681
45.7027	3.42693
45.787	3.42702
45.871	3.42708
45.9564	3.42695
46.0425	3.42694
46.1273	3.42691
46.214	3.42686
46.3012	3.4268
46.387	3.42668
46.4741	3.42654
46.5614	3.42642
46.6497	3.4263
46.7395	3.4262
46.8296	3.42609
46.9202	3.426
47.0129	3.42592
47.1051	3.42584
47.1984	3.42577
47.2924	3.42572
47.3865	3.42569
47.4814	3.42565
47.5766	3.42564
47.6713	3.42564
47.7664	3.42565
47.8628	3.42567
47.9588	3.42573
48.0551	3.42573
48.1509	3.42572
48.2468	3.4257
48.3437	3.42571
48.4411	3.4257
48.5371	3.42571
48.6337	3.42573
48.7316	3.42578
48.8295	3.42586
48.9287	3.42596
49.029	3.42609
49.1304	3.42622
49.2327	3.42642
49.3365	3.42655
49.4403	3.4267
49.5449	3.42686
49.6496	3.42704
49.7542	3.42721
49.8585	3.42738
49.9632	3.42755
50.0666	3.42761
50.1702	3.42771
50.2749	3.42778
50.3802	3.42778
50.4839	3.42777
50.5908	3.42775
50.6955	3.4277
50.7959	3.42764
50.8972	3.42758
50.9986	3.4275
51.0986	3.42743
51.1988	3.42735
51.2979	3.42726
51.3975	3.42717
51.4988	3.42707
51.6002	3.42699
51.7026	3.42692
51.8045	3.42685
51.9082	3.42682
52.0128	3.42681
52.1162	3.42682
52.2214	3.42686
52.3272	3.42694
52.4319	3.42703
52.5381	3.42718
52.6445	3.42741
52.7527	3.42759
52.8605	3.4278
52.9694	3.42805
53.0794	3.42834
53.1893	3.42861
53.3007	3.42895
53.4118	3.42922
53.5238	3.42942
53.6357	3.42952
53.7497	3.42959
53.8625	3.42952
53.977	3.42937
54.0903	3.42914
54.2044	3.42886
54.3167	3.42853
54.4274	3.42811
54.535	3.42765
54.6424	3.42713
54.7493	3.42655
54.8557	3.42596
54.9617	3.42533
55.0678	3.42467
55.1744	3.42403
55.2816	3.42345
55.389	3.42289
55.4975	3.42241
55.607	3.42202
55.7151	3.42174
55.8252	3.42156
55.9358	3.42147
56.0469	3.42152
56.158	3.4216
56.2691	3.42176
56.38	3.42202
56.4928	3.42229
56.6057	3.42276
56.7166	3.42324
56.829	3.42376
56.9416	3.42428
57.0544	3.42477
57.1688	3.42524
57.2827	3.4257
57.3973	3.42612
57.5117	3.42651
57.6264	3.42687
57.741	3.42718
57.8557	3.42744
57.9704	3.42766
58.0851	3.42785
58.2012	3.42801
58.3179	3.42815
58.4344	3.42827
58.5507	3.42836
58.6667	3.42844
58.7825	3.4285
58.8997	3.42855
59.0185	3.42858
59.1391	3.42858
59.2592	3.42856
59.381	3.4285
59.5011	3.42839
59.6233	3.42812
59.7452	3.4279
59.866	3.42761
59.9866	3.42727
60.1077	3.42687
60.229	3.4264
60.3488	3.42598
60.4685	3.42553
60.5896	3.42508
60.7107	3.42463
60.8308	3.42422
60.9518	3.42383
61.0731	3.42348
61.1937	3.42318
61.3138	3.42293
61.4337	3.42274
61.552	3.42261
61.6685	3.42253
61.7849	3.42249
61.8996	3.42252
62.0145	3.4226
62.1282	3.42273
62.2419	3.42289
62.3535	3.42309
62.4656	3.42332
62.5765	3.42358
62.6887	3.42386
62.8006	3.42418
62.9141	3.42452
63.0302	3.42485
63.1494	3.42517
63.2713	3.42552
63.3933	3.4258
63.5157	3.42607
63.6403	3.42634
63.7656	3.42657
63.8918	3.42678
64.0189	3.42695
64.1463	3.42703
64.2738	3.42715
64.4016	3.42721
64.531	3.42721
64.6598	3.42715
64.7872	3.42705
64.9163	3.42689
65.0456	3.4267
65.1755	3.42648
65.3058	3.42624
65.4371	3.42598
65.5679	3.42571
65.7002	3.42544
65.8329	3.42516
65.9615	3.42487
66.0904	3.42459
66.2199	3.42433
66.3473	3.42409
66.4746	3.42387
66.604	3.4237
66.7332	3.42358
66.8629	3.42354
66.9929	3.42359
67.1237	3.42369
67.256	3.42381
67.3892	3.42401
67.5221	3.42423
67.6559	3.42449
67.791	3.42472
67.9266	3.42496
68.0621	3.42518
68.1971	3.42531
68.3331	3.42545
68.4703	3.42555
68.6078	3.42558
68.7462	3.42563
68.8861	3.42554
69.0268	3.42543
69.1686	3.42529
69.311	3.42515
69.4542	3.42499
69.5966	3.42483
69.7386	3.42467
69.8814	3.42449
70.0241	3.42431
70.1673	3.42413
70.3092	3.42395
70.4513	3.42377
70.5931	3.4236
70.7348	3.42342
70.8767	3.42325
71.0185	3.42307
71.161	3.42289
71.3018	3.42273
71.4436	3.42252
71.5834	3.4224
71.7254	3.42226
71.8669	3.42217
72.0089	3.42213
72.1515	3.42213
72.2934	3.42219
72.4364	3.42231
72.5802	3.42257
72.7244	3.42278
72.8685	3.42303
73.0115	3.42332
73.1541	3.42363
73.2966	3.42391
73.4377	3.4242
73.5791	3.42446
73.7212	3.4247
73.8616	3.42489
74.0022	3.42505
74.1415	3.42518
74.2812	3.42526
74.42	3.42528
74.5589	3.42526
74.698	3.42519
74.8372	3.42508
74.976	3.42491
75.1153	3.42471
75.2545	3.42445
75.3941	3.42414
75.5335	3.42379
75.6736	3.42362
75.8126	3.42319
75.9517	3.42276
76.0908	3.42232
76.2284	3.42189
76.3695	3.42143
76.5102	3.42099
76.6479	3.42056
76.7882	3.42016
76.9276	3.41971
77.0645	3.41933
77.1995	3.41894
77.3341	3.41856
77.4697	3.41821
77.6051	3.41792
77.7417	3.41768
77.8783	3.41752
78.0156	3.41745
78.1515	3.41745
78.2875	3.41753
78.423	3.41768
78.5588	3.41791
78.6952	3.4182
78.8311	3.41855
78.9664	3.41895
79.1025	3.41939
79.2381	3.41988
79.3738	3.4204
79.5082	3.42095
79.6427	3.42152
79.7767	3.4221
79.9111	3.42264
80.0469	3.42323
80.1831	3.42383
80.319	3.42444
80.4579	3.42499
80.595	3.42555
80.7327	3.42607
80.8733	3.42652
81.0142	3.42691
81.155	3.42726
81.2977	3.42747
81.4397	3.4276
81.583	3.42762
81.7297	3.42756
81.8768	3.42741
82.0263	3.42716
82.1741	3.42682
82.3218	3.42642
82.4696	3.42597
82.6175	3.42546
82.7655	3.42491
82.9133	3.42432
83.0605	3.42369
83.2083	3.42305
83.3572	3.42239
83.5069	3.42174
83.6567	3.42111
83.8071	3.42049
83.9574	3.41991
84.1075	3.41936
84.2572	3.41885
84.4079	3.41845
84.5574	3.41815
84.7074	3.41798
84.8558	3.41795
85.0039	3.41802
85.1525	3.4182
85.3	3.41851
85.4473	3.4189
85.5936	3.41942
85.7418	3.41994
85.8893	3.42051
86.0374	3.42108
86.185	3.42162
86.3327	3.42212
86.4806	3.42257
86.6285	3.42297
86.7761	3.42334
86.9242	3.42365
87.0728	3.42394
87.222	3.42419
87.3722	3.42441
87.5221	3.42461
87.6738	3.42477
87.8257	3.42491
87.9791	3.42501
88.1333	3.42508
88.2851	3.42509
88.4361	3.42505
88.5863	3.42496
88.7367	3.42469
88.8875	3.42455
89.038	3.42438
89.188	3.4242
89.3376	3.42401
89.4869	3.42384
89.6359	3.42366
89.785	3.42348
89.9349	3.42331
90.0845	3.42293
90.2336	3.42277
90.3822	3.42259
90.5313	3.42239
90.6809	3.42217
90.8302	3.42195
90.9788	3.42171
91.1267	3.42146
91.2746	3.4212
91.4221	3.42096
91.5664	3.42074
91.7105	3.42058
91.8543	3.42047
91.9959	3.4204
92.1376	3.42037
92.2781	3.42037
92.4165	3.42038
92.5547	3.42042
92.6908	3.42047
92.8264	3.42053
92.961	3.4206
93.0964	3.42062
93.2318	3.42071
93.3679	3.42083
93.5044	3.42093
93.6401	3.42103
93.776	3.42113
93.9124	3.42121
94.0483	3.42128
94.1846	3.42135
94.3198	3.42144
94.4524	3.42156
94.5836	3.42164
94.7139	3.42169
94.8447	3.42172
94.9749	3.42171
95.1053	3.4216
95.2326	3.4214
95.3625	3.42112
95.4908	3.42077
95.6203	3.42034
95.7528	3.41984
95.8841	3.41927
96.015	3.41865
96.1484	3.418
96.2826	3.41735
96.4154	3.41674
96.5482	3.41619
96.6801	3.41569
96.8117	3.41526
96.942	3.41464
97.0715	3.41439
97.2016	3.41424
97.3321	3.41423
97.4619	3.41437
97.5925	3.41468
97.7232	3.41509
97.8545	3.41559
97.9865	3.41618
98.1161	3.41683
98.2484	3.41752
98.382	3.41824
98.5159	3.4189
98.6513	3.4195
98.7886	3.41998
98.926	3.42033
99.0629	3.42057
99.1992	3.42069
99.3355	3.4207
99.4726	3.4206
99.6098	3.4204
99.7486	3.42011
99.8869	3.41977
100.024	3.41938
100.162	3.41898
100.299	3.41856
100.437	3.41811
100.577	3.41767
100.715	3.41723
100.853	3.4168
100.991	3.41621
101.131	3.4158
101.271	3.41545
101.411	3.41513
101.553	3.41485
101.697	3.41462
101.842	3.41444
101.987	3.41429
102.134	3.41422
102.282	3.41419
102.431	3.4142
102.581	3.41441
102.733	3.4145
102.886	3.4146
103.039	3.41471
103.193	3.41483
103.345	3.41495
103.497	3.41505
103.648	3.41516
103.798	3.41526
103.947	3.41536
104.096	3.41546
104.244	3.41555
104.39	3.41565
104.534	3.41574
104.678	3.41584
104.826	3.41591
104.974	3.416
105.123	3.41611
105.271	3.41623
105.42	3.41633
105.57	3.41646
105.721	3.41659
105.871	3.41672
106.022	3.4169
106.173	3.41706
106.322	3.41722
106.472	3.41734
106.623	3.41743
106.772	3.41749
106.922	3.41749
107.074	3.41753
107.225	3.41743
107.378	3.41728
107.532	3.4171
107.686	3.41689
107.841	3.41663
107.995	3.41636
108.149	3.41608
108.304	3.41575
108.458	3.4154
108.611	3.41503
108.763	3.41464
108.914	3.41423
109.067	3.41382
109.217	3.41342
109.367	3.41304
109.515	3.41272
109.662	3.41243
109.809	3.41219
109.954	3.412
110.1	3.41185
110.245	3.41176
110.39	3.41174
110.535	3.41179
110.679	3.41189
110.82	3.41205
110.965	3.41225
111.108	3.41248
111.25	3.41276
111.393	3.41332
111.532	3.41361
111.673	3.41387
111.814	3.41409
111.954	3.41422
112.094	3.41424
112.234	3.41424
112.373	3.41413
112.513	3.41399
112.65	3.4138
112.787	3.41361
112.923	3.4134
113.059	3.41322
113.194	3.41307
113.329	3.41297
113.463	3.41292
113.597	3.41295
113.73	3.41301
113.861	3.41313
113.994	3.41326
114.126	3.41342
114.259	3.41361
114.394	3.41379
114.528	3.41401
114.664	3.41425
114.801	3.41454
114.938	3.41486
115.078	3.41518
115.219	3.4155
115.361	3.41582
115.504	3.41626
115.647	3.41652
115.789	3.4167
115.931	3.41681
116.072	3.41685
116.213	3.41679
116.355	3.41666
116.496	3.41645
116.638	3.41614
116.779	3.41579
116.92	3.41538
117.058	3.41491
117.196	3.41442
117.333	3.41391
117.468	3.41338
117.603	3.41285
117.738	3.41232
117.873	3.4118
118.006	3.4113
118.139	3.41083
118.271	3.41038
118.403	3.41
118.535	3.40973
118.667	3.40958
118.8	3.40955
118.932	3.40967
119.064	3.40989
119.196	3.41018
119.329	3.41054
119.463	3.41095
119.596	3.41139
119.73	3.4118
119.864	3.41215
119.999	3.41243
120.132	3.41259
120.266	3.41264
120.401	3.4126
120.534	3.41249
120.667	3.41232
120.799	3.41211
120.933	3.41189
121.069	3.41164
121.202	3.41142
121.338	3.4112
121.473	3.41101
121.609	3.41084
121.744	3.4107
121.879	3.4106
122.014	3.41053
122.148	3.41052
122.282	3.41055
122.417	3.41069
122.551	3.41079
122.687	3.41091
122.825	3.41108
122.96	3.41127
123.096	3.41151
123.23	3.41175
123.364	3.41201
123.498	3.41227
123.633	3.41254
123.769	3.41281
123.904	3.41308
124.04	3.41335
124.176	3.41353
124.312	3.41367
124.446	3.41375
124.582	3.41376
124.718	3.4137
124.853	3.41357
124.99	3.41339
125.123	3.41315
125.255	3.41285
125.386	3.41249
125.518	3.41209
125.649	3.41165
125.779	3.41115
125.909	3.41065
126.04	3.41011
126.17	3.40955
126.3	3.40897
126.427	3.40837
126.554	3.4078
126.681	3.40728
126.808	3.4068
126.934	3.4064
127.061	3.40608
127.187	3.40584
127.312	3.40565
127.436	3.40555
127.56	3.40551
127.683	3.40549
127.807	3.40552
127.93	3.40552
128.053	3.40551
128.178	3.40545
128.301	3.40537
128.425	3.40528
128.548	3.40519
128.672	3.40505
128.796	3.40491
128.921	3.40477
129.045	3.40465
129.169	3.40457
129.293	3.40451
129.418	3.40449
129.543	3.40454
129.669	3.40464
129.795	3.4048
129.921	3.40502
130.045	3.40528
130.17	3.40571
130.297	3.40603
130.424	3.40637
130.553	3.40675
130.68	3.40715
130.808	3.40759
130.936	3.40802
131.064	3.40845
131.192	3.40886
131.322	3.40926
131.451	3.4096
131.58	3.40983
131.709	3.40995
131.839	3.40994
131.969	3.40976
132.098	3.40951
132.226	3.40914
132.354	3.40868
132.48	3.40811
132.607	3.40748
132.734	3.4068
132.862	3.4061
132.989	3.40542
133.116	3.40476
133.241	3.40414
133.365	3.40358
133.49	3.40306
133.614	3.40261
133.736	3.40218
133.858	3.40177
133.982	3.40152
134.102	3.40116
134.222	3.4008
134.344	3.40047
134.465	3.40017
134.587	3.39988
134.709	3.39964
134.832	3.39942
134.953	3.39922
135.075	3.39902
135.197	3.39877
135.318	3.3986
135.438	3.39845
135.559	3.39831
135.68	3.39818
135.801	3.39804
135.922	3.39794
136.043	3.39785
136.161	3.39778
136.282	3.39773
136.402	3.39769
136.524	3.39768
136.646	3.39765
136.767	3.39767
136.887	3.39772
137.006	3.39778
137.124	3.39787
137.243	3.39801
137.362	3.39817
137.481	3.39836
137.6	3.39858
137.718	3.39887
137.836	3.39916
137.952	3.39948
138.069	3.39985
138.186	3.40024
138.301	3.40065
138.416	3.4011
138.53	3.40156
138.643	3.402
138.756	3.40242
138.868	3.40277
138.978	3.40301
139.09	3.40317
139.201	3.40323
139.31	3.40316
139.419	3.40301
139.529	3.4028
139.637	3.40254
139.747	3.40224
139.856	3.40194
139.963	3.40165
140.069	3.40136
140.174	3.40114
140.28	3.40096
140.387	3.4008
140.495	3.40067
140.604	3.40054
140.715	3.40045
140.827	3.40036
140.94	3.40029
141.054	3.40019
141.168	3.40012
141.285	3.40002
141.402	3.39993
141.519	3.39986
141.638	3.39989
141.759	3.39992
141.879	3.39995
142	3.39996
142.122	3.3998
142.243	3.39977
142.365	3.39968
142.487	3.39953
142.611	3.39932
142.734	3.39905
142.858	3.39872
142.982	3.39835
143.104	3.39795
143.227	3.39751
143.349	3.39705
143.471	3.39658
143.592	3.39611
143.714	3.39564
143.836	3.39519
143.958	3.39476
144.081	3.39434
144.204	3.39395
144.326	3.39359
144.447	3.39326
144.571	3.393
144.693	3.39281
144.815	3.39279
144.939	3.39276
145.059	3.39281
145.182	3.39294
145.304	3.39317
145.427	3.39348
145.551	3.39387
145.674	3.39433
145.8	3.39468
145.925	3.39516
146.05	3.39562
146.176	3.39603
146.3	3.39639
146.424	3.3967
146.546	3.39692
146.668	3.39709
146.792	3.39722
146.916	3.39729
147.039	3.39734
147.165	3.39737
147.291	3.39738
147.418	3.39738
147.546	3.39737
147.673	3.39735
147.803	3.39732
147.935	3.39727
148.066	3.39719
148.2	3.39708
148.336	3.39693
148.473	3.39675
148.61	3.39651
148.748	3.39643
148.885	3.39613
149.024	3.39581
149.162	3.39549
149.301	3.39515
149.441	3.3948
149.58	3.39444
149.717	3.39406
149.854	3.39364
149.992	3.39321
150.129	3.39277
150.266	3.39229
150.403	3.39178
150.539	3.39127
150.675	3.39073
150.81	3.39019
150.944	3.38966
151.077	3.38915
151.211	3.38868
151.344	3.38824
151.477	3.38781
151.61	3.38739
151.743	3.38698
151.876	3.38656
152.01	3.38614
152.143	3.38569
152.274	3.38524
152.407	3.38478
152.54	3.38427
152.673	3.38379
152.808	3.38325
152.941	3.38269
153.076	3.38216
153.212	3.38163
153.348	3.38114
153.483	3.38066
153.618	3.38022
153.751	3.3798
153.881	3.37941
154.01	3.37903
154.14	3.37866
154.271	3.37831
154.402	3.37792
154.533	3.37742
154.666	3.37693
154.8	3.37643
154.935	3.37595
155.067	3.37549
155.201	3.37509
155.335	3.37473
155.467	3.37443
155.599	3.37418
155.732	3.37398
155.864	3.37385
155.995	3.37375
156.126	3.3737
156.255	3.37369
156.385	3.37373
156.514	3.37378
156.644	3.37386
156.773	3.37395
156.901	3.37404
157.029	3.37418
157.156	3.3743
157.284	3.37443
157.411	3.37459
157.538	3.3747
157.666	3.37481
157.792	3.37487
157.919	3.37479
158.047	3.37473
158.174	3.37462
158.301	3.37443
158.43	3.37416
158.558	3.37381
158.685	3.3734
158.812	3.37295
158.94	3.37248
159.069	3.372
159.198	3.37156
159.328	3.37114
159.462	3.37073
159.596	3.37034
159.73	3.36996
159.863	3.36959
159.996	3.36922
160.129	3.36883
160.261	3.36842
160.393	3.36797
160.525	3.36747
160.656	3.36693
160.787	3.36637
160.917	3.3659
161.046	3.36525
161.175	3.36458
161.305	3.36393
161.435	3.3633
161.565	3.36267
161.696	3.36207
161.828	3.3615
161.961	3.36078
162.093	3.36025
162.225	3.35972
162.355	3.35917
162.486	3.35861
162.619	3.35802
162.752	3.3574
162.885	3.35678
163.018	3.35612
163.152	3.35544
163.287	3.35474
163.423	3.354
163.561	3.35324
163.7	3.35244
163.84	3.35161
163.98	3.35073
164.118	3.3498
164.254	3.34884
164.39	3.34782
164.524	3.34679
164.658	3.34572
164.793	3.34463
164.927	3.34353
165.062	3.3422
165.197	3.3411
165.332	3.34001
165.467	3.33893
165.601	3.33796
165.736	3.33704
165.873	3.33618
166.01	3.33541
166.149	3.33473
166.289	3.33409
166.432	3.33349
166.575	3.33293
166.718	3.33241
166.864	3.33188
167.009	3.33136
167.155	3.33082
167.3	3.33026
167.446	3.32967
167.592	3.32903
167.738	3.32837
167.883	3.32766
168.029	3.32693
168.173	3.32617
168.318	3.32539
168.463	3.32462
168.607	3.32385
168.751	3.32308
168.895	3.32232
169.04	3.32156
169.185	3.3208
169.329	3.32005
169.472	3.31944
169.614	3.31868
169.753	3.31793
169.892	3.31716
170.033	3.31637
170.172	3.31557
170.31	3.31474
170.448	3.31386
170.588	3.31289
170.728	3.31187
170.869	3.31078
171.011	3.3096
171.154	3.30836
171.298	3.30701
171.442	3.30557
171.586	3.30404
171.728	3.30243
171.87	3.30072
172.01	3.29896
172.15	3.29712
172.288	3.29522
172.426	3.29329
172.564	3.29127
172.702	3.2892
172.841	3.28708
172.978	3.28491
173.113	3.2827
173.248	3.28045
173.382	3.27817
173.516	3.27589
173.65	3.2736
173.784	3.27127
173.916	3.26898
174.05	3.26672
174.185	3.2645
174.321	3.26235
174.457	3.26025
174.596	3.25818
174.736	3.25602
174.876	3.25405
175.016	3.2521
175.156	3.25018
175.293	3.24826
175.429	3.24638
175.565	3.24453
175.703	3.24271
175.841	3.24093
175.981	3.23919
176.122	3.2375
176.264	3.23586
176.406	3.23426
176.548	3.23274
176.689	3.23127
176.83	3.22985
176.972	3.22849
177.113	3.22719
177.255	3.22593
177.395	3.22473
177.534	3.22358
177.675	3.22246
177.815	3.22138
177.955	3.22033
178.095	3.21934
178.235	3.21832
178.376	3.21732
178.517	3.21636
178.659	3.2154
178.8	3.21446
178.94	3.21351
179.08	3.21277
179.22	3.21177
179.358	3.21074
179.494	3.20968
179.63	3.20849
179.766	3.20728
179.902	3.20598
180.039	3.20458
180.173	3.20309
180.306	3.2015
180.439	3.19981
180.572	3.19802
180.705	3.19609
180.84	3.19406
180.975	3.19191
181.109	3.18966
181.245	3.18729
181.38	3.18485
181.515	3.18231
181.649	3.17967
181.781	3.17694
181.914	3.17411
182.048	3.17118
182.182	3.16789
182.318	3.16474
182.455	3.16149
182.592	3.15815
182.729	3.15476
182.866	3.15134
183.001	3.14787
183.139	3.14436
183.277	3.1407
183.416	3.13714
183.555	3.13354
183.695	3.12991
183.834	3.12628
183.975	3.12262
184.115	3.11896
184.257	3.11533
184.398	3.11172
184.538	3.10814
184.678	3.10462
184.817	3.10113
184.956	3.0977
185.095	3.09431
185.233	3.09096
185.372	3.08765
185.511	3.08438
185.653	3.08114
185.797	3.07791
185.941	3.07472
186.085	3.07154
186.229	3.0684
186.374	3.06531
186.518	3.06251
186.661	3.05953
186.804	3.05662
186.947	3.0538
187.09	3.05106
187.233	3.0484
187.376	3.04581
187.519	3.04328
187.663	3.04084
187.809	3.03839
187.954	3.03597
188.1	3.03355
188.246	3.0311
188.391	3.02863
188.538	3.02615
188.683	3.02365
188.827	3.02111
188.97	3.01854
189.112	3.01591
189.255	3.01325
189.398	3.01052
189.542	3.00776
189.684	3.00494
189.83	3.00207
189.977	2.99917
190.125	2.99623
190.273	2.99326
190.42	2.99026
190.57	2.98725
190.722	2.98419
190.874	2.98105
191.025	2.97764
191.176	2.97432
191.325	2.97087
191.472	2.96731
191.619	2.96368
191.766	2.9599
191.912	2.95599
192.058	2.95197
192.205	2.94778
192.354	2.94349
192.502	2.93905
192.651	2.93445
192.798	2.92969
192.946	2.92475
193.092	2.91967
193.233	2.91444
193.371	2.90907
193.51	2.90358
193.65	2.89792
193.791	2.89212
193.929	2.88617
194.07	2.88007
194.211	2.87383
194.35	2.86751
194.489	2.86108
194.628	2.85458
194.767	2.84805
194.906	2.84155
195.045	2.83508
195.182	2.82869
195.319	2.82242
195.454	2.81629
195.589	2.81028
195.724	2.80442
195.86	2.79871
195.998	2.79316
196.138	2.78774
196.279	2.78247
196.421	2.77757
196.564	2.77253
196.708	2.76758
196.852	2.7627
196.997	2.75784
197.141	2.753
197.286	2.74818
197.432	2.74335
197.578	2.73852
197.726	2.73369
197.874	2.72886
198.022	2.72403
198.171	2.71919
198.319	2.71435
198.468	2.70948
198.617	2.70459
198.766	2.69967
198.916	2.69473
199.065	2.68977
199.214	2.68478
199.36	2.67975
199.501	2.6747
199.64	2.66961
199.778	2.6645
199.914	2.65935
200.05	2.6542
200.186	2.64903
200.324	2.64385
200.464	2.63869
200.604	2.63351
200.747	2.62836
200.89	2.62298
201.032	2.61785
201.175	2.61271
201.316	2.60756
201.458	2.6024
201.601	2.59721
201.745	2.59199
201.891	2.58675
202.039	2.58147
202.187	2.57616
202.337	2.57082
202.488	2.56543
202.637	2.55997
202.784	2.55443
202.929	2.54875
203.07	2.54296
203.21	2.53702
203.35	2.53094
203.49	2.52471
203.631	2.51832
203.777	2.51179
203.929	2.50509
204.084	2.49821
204.243	2.49117
204.398	2.48394
204.553	2.4766
204.71	2.46908
204.864	2.46141
205.017	2.45356
205.17	2.44562
205.322	2.4376
205.473	2.42969
205.624	2.42152
205.774	2.41333
205.923	2.40509
206.073	2.39679
206.222	2.38851
206.373	2.38022
206.524	2.37195
206.675	2.36371
206.824	2.35552
206.971	2.34741
207.118	2.33938
207.263	2.33147
207.406	2.3237
207.547	2.31605
207.689	2.30851
207.829	2.30109
207.968	2.29377
208.104	2.28656
208.241	2.27947
208.377	2.2725
208.514	2.26563
208.652	2.25887
208.789	2.25217
208.926	2.24559
209.067	2.23913
209.208	2.23273
209.348	2.22636
209.489	2.22004
209.629	2.21373
209.769	2.20743
209.911	2.20109
210.055	2.19473
210.202	2.18834
210.354	2.18189
210.509	2.17541
210.666	2.16887
210.827	2.16229
210.987	2.15567
211.147	2.14902
211.304	2.14233
211.46	2.13562
211.614	2.1289
211.765	2.12216
211.914	2.11541
212.065	2.10866
212.213	2.10193
212.363	2.09523
212.511	2.08856
212.656	2.08194
212.801	2.07538
212.944	2.06887
213.085	2.06244
213.225	2.05608
213.365	2.04977
213.505	2.04353
213.644	2.03732
213.786	2.03116
213.932	2.02505
214.08	2.01896
214.231	2.01292
214.384	2.00689
214.538	2.00088
214.691	1.99484
214.841	1.98873
214.99	1.98253
215.135	1.97617
215.28	1.96968
215.425	1.96299
215.572	1.95609
215.716	1.94899
215.863	1.94168
216.01	1.93415
216.159	1.9264
216.309	1.91842
216.458	1.91024
216.607	1.90185
216.756	1.89327
216.904	1.88451
217.05	1.87558
217.198	1.86651
217.345	1.85731
217.492	1.84805
217.636	1.83874
217.782	1.82944
217.928	1.82015
218.072	1.81089
218.217	1.80167
218.361	1.79252
218.506	1.7835
218.651	1.77458
218.794	1.76579
218.939	1.75716
219.084	1.74869
219.229	1.74033
219.373	1.73212
219.516	1.72402
219.654	1.71605
219.794	1.70814
219.934	1.70034
220.069	1.69263
220.207	1.68503
220.345	1.67754
220.481	1.67016
220.62	1.66285
220.758	1.65565
220.895	1.64855
221.032	1.64151
221.169	1.63454
221.305	1.62763
221.442	1.62074
221.575	1.61388
221.707	1.60703
221.84	1.60018
221.972	1.59333
222.105	1.5865
222.236	1.57969
222.37	1.57292
222.504	1.56619
222.64	1.55951
222.775	1.55289
222.913	1.54638
223.048	1.53994
223.184	1.53359
223.326	1.52733
223.466	1.52108
223.605	1.51493
223.745	1.50887
223.885	1.50287
224.02	1.49692
224.155	1.491
224.293	1.48513
224.427	1.47928
224.56	1.47349
224.692	1.46772
224.824	1.46196
224.953	1.45623
225.081	1.4505
225.206	1.44477
225.331	1.43902
225.457	1.43325
225.584	1.42745
225.712	1.42161
225.841	1.41569
225.97	1.40967
226.1	1.40354
226.231	1.3973
226.359	1.3909
226.487	1.38436
226.613	1.37767
226.739	1.3708
226.866	1.36377
226.997	1.35657
227.129	1.34918
227.264	1.34168
227.396	1.33404
227.53	1.3263
227.664	1.31846
227.798	1.31051
227.929	1.30247
228.062	1.29434
228.194	1.28613
228.327	1.27784
228.463	1.2695
228.597	1.26115
228.732	1.25281
228.868	1.24452
229.005	1.23631
229.139	1.22819
229.274	1.2202
229.411	1.21235
229.548	1.20466
229.687	1.19716
229.826	1.18985
229.963	1.18274
230.101	1.17584
230.237	1.16911
230.374	1.16256
230.51	1.15617
230.644	1.14997
230.779	1.14392
230.914	1.13803
231.051	1.13229
231.189	1.12669
231.325	1.12118
231.462	1.11595
231.6	1.11069
231.736	1.10555
231.873	1.10054
232.011	1.0956
232.149	1.09074
232.287	1.08595
232.424	1.08119
232.561	1.07644
232.698	1.0717
232.834	1.06699
232.969	1.06232
233.106	1.05768
233.242	1.05307
233.377	1.04849
233.513	1.04395
233.647	1.03946
233.782	1.03501
233.914	1.03061
234.047	1.02626
234.179	1.02196
234.306	1.01771
234.429	1.01352
234.551	1.0094
234.67	1.00535
234.789	1.00138
234.91	0.997492
235.033	0.993678
235.159	0.989938
235.287	0.986274
235.417	0.982656
235.547	0.979067
235.677	0.975489
235.803	0.971981
235.93	0.968404
236.057	0.964798
236.185	0.961127
236.315	0.957407
236.449	0.953643
236.586	0.949812
236.725	0.945916
236.863	0.941924
237.001	0.9378
237.141	0.933523
237.279	0.929083
237.42	0.924478
237.563	0.919715
237.706	0.91481
237.849	0.909724
237.997	0.9045
238.141	0.899136
238.284	0.893642
238.426	0.888045
238.567	0.882359
238.707	0.876594
238.844	0.870765
238.983	0.864883
239.121	0.858985
239.259	0.853095
239.397	0.847241
239.531	0.841429
239.665	0.835681
239.797	0.83005
239.926	0.824539
240.056	0.819174
240.186	0.813974
240.315	0.808937
240.443	0.804089
240.57	0.799463
240.697	0.794982
240.823	0.790677
240.948	0.786526
241.073	0.782498
241.198	0.778596
241.322	0.774815
241.446	0.771151
241.573	0.767596
241.703	0.764147
241.833	0.760806
241.964	0.757572
242.096	0.754438
242.227	0.751381
242.357	0.748383
242.486	0.74546
242.616	0.7426
242.747	0.739801
242.877	0.737039
243.008	0.734312
243.14	0.731617
243.27	0.728941
243.401	0.726289
243.534	0.723678
243.667	0.721112
243.802	0.718592
243.938	0.716107
244.075	0.713665
244.217	0.711257
244.363	0.708896
244.511	0.706577
244.661	0.704326
244.812	0.701971
244.961	0.699809
245.11	0.697736
245.258	0.69569
245.402	0.69367
245.545	0.691675
245.688	0.689704
245.829	0.687773
245.973	0.685842
246.114	0.683955
246.254	0.682064
246.392	0.680167
246.529	0.678251
246.663	0.6763
246.796	0.674332
246.931	0.672318
247.06	0.670213
247.186	0.668005
247.309	0.665689
247.434	0.66327
247.555	0.660739
247.671	0.658109
247.785	0.655385
247.9	0.652557
248.009	0.649632
248.117	0.646613
248.225	0.6435
248.334	0.640316
248.449	0.637064
248.569	0.63374
248.693	0.630375
248.817	0.626995
248.942	0.623423
249.069	0.619966
249.196	0.616633
249.322	0.613375
249.447	0.610191
249.575	0.607086
249.705	0.604044
249.836	0.601085
249.967	0.59821
250.098	0.595417
250.232	0.592751
250.37	0.590239
250.508	0.587887
250.647	0.585687
250.788	0.583638
250.927	0.581722
251.065	0.579952
251.205	0.578344
251.34	0.576868
251.474	0.575508
251.607	0.57427
251.739	0.57313
251.871	0.572083
252.001	0.571104
252.131	0.570198
252.26	0.569347
252.387	0.568551
252.513	0.567803
252.637	0.56712
252.762	0.566465
252.892	0.565801
253.023	0.565119
253.155	0.564406
253.287	0.56339
253.419	0.562591
253.553	0.561754
253.686	0.560865
253.821	0.55994
253.958	0.558984
254.091	0.558006
254.222	0.557027
254.353	0.556053
254.484	0.555104
254.616	0.554189
254.749	0.553326
254.884	0.55252
255.02	0.551757
255.155	0.551047
255.289	0.550384
255.423	0.54977
255.556	0.549227
255.687	0.548716
255.819	0.548253
255.952	0.547806
256.085	0.547371
256.218	0.546927
256.353	0.546464
256.488	0.545977
256.622	0.545451
256.761	0.544893
256.902	0.544294
257.045	0.543649
257.188	0.542951
257.332	0.542208
257.48	0.54142
257.63	0.540579
257.781	0.539698
257.936	0.538796
258.094	0.537823
258.252	0.536806
258.408	0.535731
258.56	0.534604
258.709	0.533435
258.857	0.532234
259.003	0.53099
259.15	0.529703
259.297	0.528427
259.446	0.527098
259.597	0.525759
259.75	0.524415
259.901	0.523095
260.052	0.521806
260.2	0.520545
260.348	0.519333
260.498	0.518205
260.646	0.51719
260.791	0.516293
260.935	0.515512
261.078	0.514875
261.215	0.514367
261.348	0.513994
261.479	0.513774
261.61	0.5137
261.741	0.513751
261.871	0.513927
261.998	0.514186
262.121	0.514523
262.246	0.514922
262.369	0.51534
262.491	0.515762
262.611	0.516365
262.734	0.516775
262.863	0.517114
262.994	0.51738
263.126	0.517543
263.254	0.517653
263.381	0.517672
263.508	0.517607
263.638	0.517439
263.767	0.517188
263.897	0.516834
264.029	0.516379
264.16	0.515842
264.292	0.515231
264.425	0.514566
264.562	0.513847
264.699	0.513096
264.838	0.512295
264.973	0.511473
265.103	0.510642
265.226	0.509812
265.347	0.508995
265.467	0.508201
265.589	0.507457
265.715	0.506766
265.844	0.506152
265.979	0.505621
266.111	0.50519
266.245	0.504854
266.379	0.504631
266.515	0.504536
266.65	0.504572
266.786	0.504727
266.922	0.505264
267.058	0.505631
267.196	0.506073
267.334	0.506525
267.472	0.506987
267.611	0.507429
267.75	0.507881
267.89	0.508305
268.03	0.508695
268.172	0.509035
268.315	0.50929
268.46	0.509448
268.607	0.509503
268.755	0.509465
268.903	0.509332
269.05	0.509095
269.196	0.508765
269.342	0.508326
269.487	0.507799
269.632	0.507176
269.777	0.506496
269.92	0.50577
270.06	0.505005
270.197	0.504226
270.336	0.50343
270.474	0.502648
270.61	0.501888
270.745	0.501183
270.882	0.500573
271.019	0.500049
271.157	0.499624
271.301	0.499287
271.449	0.499053
271.6	0.498918
271.751	0.498818
271.906	0.498846
272.063	0.498932
272.222	0.499031
272.385	0.499198
272.548	0.499409
272.712	0.499652
272.879	0.499951
273.048	0.500288
273.216	0.500655
273.379	0.501019
273.539	0.501397
273.699	0.501777
273.858	0.502134
274.016	0.502445
274.171	0.502721
274.326	0.502947
274.481	0.503122
274.635	0.503235
274.786	0.503269
274.937	0.503228
275.087	0.503093
275.236	0.502891
275.384	0.502599
275.531	0.502215
275.676	0.501734
275.825	0.501174
275.976	0.500548
276.132	0.499868
276.286	0.499162
276.438	0.498463
276.589	0.497823
276.737	0.497248
276.884	0.496755
277.027	0.496335
277.17	0.495994
277.31	0.495726
277.448	0.495543
277.587	0.495375
277.723	0.495303
277.855	0.495293
277.986	0.495347
278.116	0.495436
278.242	0.495595
278.37	0.495794
278.499	0.496039
278.633	0.496338
278.77	0.496664
278.908	0.497036
279.048	0.497434
279.186	0.497862
279.326	0.498297
279.463	0.498731
279.599	0.499138
279.735	0.49951
279.871	0.499858
280.006	0.500158
280.141	0.500395
280.275	0.500564
280.407	0.500647
280.539	0.500647
280.667	0.500551
280.797	0.500373
280.928	0.500091
281.062	0.499718
281.198	0.499246
281.333	0.498702
281.47	0.4981
281.608	0.49745
281.744	0.496861
281.881	0.49632
282.016	0.495857
282.152	0.49546
282.289	0.495151
282.428	0.494922
282.566	0.494781
282.704	0.494738
282.844	0.494788
282.983	0.494909
283.117	0.495103
283.252	0.495345
283.387	0.49565
283.519	0.495996
283.65	0.496371
283.776	0.49677
283.897	0.497179
284.01	0.497567
284.12	0.497934
284.229	0.498288
284.34	0.498606
284.45	0.498895
284.558	0.499165
284.668	0.499415
284.782	0.499569
284.898	0.499652
285.017	0.49968
285.136	0.499641
285.255	0.499541
285.374	0.499377
285.493	0.499149
285.611	0.498866
285.73	0.498519
285.848	0.498143
285.965	0.497738
286.083	0.497307
286.203	0.496883
286.322	0.496476
286.437	0.496095
286.551	0.495761
286.666	0.49546
286.784	0.495241
286.907	0.495097
287.031	0.495026
287.155	0.495033
287.282	0.49511
287.41	0.495242
287.542	0.495417
287.675	0.495728
287.808	0.496003
287.938	0.496333
288.06	0.496692
288.176	0.497101
288.291	0.497534
288.403	0.49798
288.515	0.498431
288.626	0.498891
288.735	0.499333
288.844	0.499741
288.952	0.500142
289.061	0.500489
289.168	0.500771
289.275	0.50097
289.38	0.501092
289.487	0.501121
289.595	0.501064
289.704	0.500926
289.813	0.500698
289.922	0.500408
290.031	0.500091
290.141	0.4997
290.248	0.499289
290.354	0.498869
290.458	0.498498
290.56	0.498117
290.661	0.497788
290.764	0.497484
290.866	0.497212
290.966	0.496963
291.065	0.496727
291.162	0.496507
291.258	0.496294
291.351	0.496101
291.44	0.495941
291.528	0.495807
291.617	0.495716
291.707	0.495656
291.796	0.495627
291.886	0.495635
291.977	0.495673
292.072	0.495747
292.173	0.495859
292.279	0.496
292.386	0.496197
292.491	0.496459
292.597	0.496774
292.701	0.497136
292.806	0.497534
292.904	0.498009
292.998	0.498457
293.086	0.498883
293.172	0.499359
293.26	0.499799
293.344	0.50021
293.426	0.50058
293.509	0.500902
293.59	0.501185
293.671	0.501415
293.75	0.501591
293.829	0.501708
293.91	0.501753
293.99	0.50173
294.07	0.501638
294.151	0.501489
294.232	0.50129
294.31	0.501042
294.385	0.500764
294.456	0.500461
294.526	0.500145
294.594	0.499845
294.661	0.499565
294.728	0.499304
294.792	0.49906
294.853	0.498849
294.915	0.498674
294.979	0.498543
295.048	0.498425
295.116	0.498418
295.181	0.498486
295.245	0.498617
295.308	0.498791
295.37	0.499029
295.432	0.499341
295.495	0.499711
295.558	0.500143
295.621	0.500612
295.681	0.501072
295.739	0.501528
295.798	0.501966
295.855	0.502325
295.909	0.502621
295.961	0.502848
296.014	0.502972
296.067	0.503029
296.121	0.503007
296.175	0.50293
296.23	0.502803
296.288	0.502633
296.346	0.502316
296.404	0.502092
296.455	0.50184
296.495	0.501626
296.529	0.501367
296.555	0.501081
296.575	0.500797
296.592	0.500505
296.608	0.500216
296.629	0.499944
296.652	0.499684
296.68	0.499422
296.714	0.499186
296.749	0.498979
296.784	0.498796
296.816	0.49864
296.85	0.498545
296.881	0.498528
296.915	0.498581
296.946	0.49872
296.976	0.498941
297.01	0.499235
297.04	0.499611
297.071	0.500015
297.104	0.500444
297.14	0.50086
297.176	0.501288
297.216	0.501674
297.258	0.501979
297.297	0.502298
297.339	0.502599
297.385	0.502876
297.432	0.503122
297.479	0.503343
297.527	0.503537
297.575	0.503703
297.624	0.503847
297.673	0.503968
297.72	0.50408
297.766	0.504166
297.811	0.504239
297.856	0.504285
297.901	0.504317
297.947	0.504317
297.992	0.5043
298.035	0.504215
298.077	0.504063
298.117	0.503855
298.157	0.503598
298.196	0.503044
298.236	0.502652
298.273	0.502329
298.307	0.502002
298.338	0.501652
298.37	0.501309
298.403	0.500969
298.436	0.500654
298.469	0.500359
298.499	0.500067
298.528	0.499792
298.558	0.499543
298.588	0.499345
298.618	0.499193
298.653	0.499115
298.688	0.499096
298.724	0.499129
298.761	0.499225
298.799	0.499373
298.837	0.499566
298.874	0.499787
298.908	0.500031
298.939	0.500275
298.967	0.500526
298.993	0.500765
299.017	0.501118
299.044	0.501321
299.07	0.501525
299.103	0.501707
299.146	0.501904
299.196	0.502011
299.251	0.502061
299.31	0.502073
299.37	0.50208
299.433	0.502066
299.493	0.502019
299.552	0.501962
299.607	0.501891
299.654	0.501818
299.7	0.501741
299.745	0.501663
299.791	0.501552
299.837	0.501462
299.882	0.501371
299.926	0.501283
299.973	0.501211
300.022	0.501139
300.068	0.501091
300.116	0.501074
300.161	0.501074
300.204	0.501001
300.245	0.501082
300.284	0.501164
300.321	0.501272
300.355	0.501343
300.387	0.501464
300.417	0.501608
300.444	0.501749
300.469	0.501908
300.492	0.502066
300.515	0.502213
300.539	0.50236
300.558	0.502479
300.577	0.5026
300.598	0.502728
300.621	0.502865
300.644	0.503014
300.668	0.503148
300.695	0.503247
300.721	0.503324
300.748	0.503367
300.773	0.503368
300.802	0.503308
300.829	0.503169
300.858	0.502979
300.887	0.502732
300.916	0.50248
300.945	0.502218
300.971	0.501963
300.992	0.501765
301.008	0.501519
301.025	0.501277
301.044	0.501051
301.063	0.50084
301.084	0.500646
301.105	0.500477
301.122	0.50033
301.138	0.500209
301.152	0.500108
301.166	0.500009
301.179	0.499949
301.194	0.499911
301.208	0.499901
301.224	0.499902
301.241	0.499922
301.261	0.499986
301.281	0.500095
301.305	0.500272
301.329	0.500492
301.353	0.500771
301.375	0.501318
301.394	0.501726
301.413	0.502146
301.431	0.502628
301.446	0.503023
301.462	0.503412
301.479	0.50377
301.496	0.504082
301.514	0.504356
301.529	0.504597
301.543	0.504804
301.557	0.50499
301.57	0.505131
301.585	0.505247
301.602	0.505326
301.615	0.505387
301.623	0.505426
301.626	0.505434
301.628	0.505431
301.626	0.50541
301.615	0.505387
301.601	0.505344
301.586	0.505287
301.571	0.505215
301.553	0.505142
301.536	0.504972
301.523	0.504898
301.511	0.504839
301.501	0.50477
301.494	0.504695
301.49	0.504632
301.489	0.504596
301.49	0.504571
301.492	0.504548
301.496	0.504521
301.501	0.504505
301.507	0.504477
301.515	0.504424
301.525	0.504335
301.532	0.504233
301.54	0.50411
301.547	0.503968
301.556	0.503808
301.564	0.503645
301.573	0.503466
301.581	0.503298
301.591	0.50312
301.592	0.50295
301.589	0.502773
301.582	0.502595
301.573	0.502574
301.564	0.502457
301.553	0.502354
301.545	0.502292
301.541	0.502268
301.544	0.502271
301.549	0.502303
301.555	0.502379
301.563	0.50249
301.575	0.502652
301.588	0.502846
301.606	0.503087
301.625	0.503404
301.645	0.503748
301.664	0.504116
301.68	0.504521
301.694	0.504925
301.707	0.50534
301.719	0.505753
301.73	0.506146
301.739	0.506504
301.747	0.506818
301.749	0.507101
301.749	0.507357
301.75	0.507686
301.753	0.507894
301.758	0.508047
301.764	0.508187
301.771	0.508281
301.779	0.508379
301.787	0.50845
301.793	0.508487
301.797	0.508495
301.799	0.508475
301.803	0.508433
301.809	0.508366
301.815	0.508281
301.822	0.508179
301.83	0.508066
301.837	0.507951
301.846	0.507817
301.859	0.507665
301.877	0.507524
301.897	0.507403
301.92	0.507296
301.951	0.507184
301.986	0.507079
302.019	0.506971
302.052	0.506852
302.088	0.506727
302.123	0.506653
302.152	0.506513
302.179	0.506356
302.205	0.506122
302.228	0.505921
302.249	0.505704
302.269	0.505479
302.288	0.505254
302.308	0.505028
302.324	0.504808
302.336	0.504599
302.343	0.504391
302.345	0.504223
302.341	0.504081
302.334	0.503953
302.327	0.503841
302.317	0.503753
302.309	0.503692
302.3	0.503644
302.292	0.503611
302.289	0.503604
302.29	0.503616
302.298	0.503655
302.314	0.50367
302.335	0.503764
302.357	0.503855
302.377	0.50402
302.397	0.504268
302.42	0.504533
302.444	0.50482
302.467	0.505129
302.486	0.50546
302.501	0.505788
302.506	0.506108
302.504	0.506417
302.498	0.50669
302.493	0.506924
302.49	0.507147
302.485	0.507337
302.475	0.507515
302.463	0.507664
302.453	0.507799
302.445	0.507923
302.441	0.508031
302.438	0.508131
302.44	0.508214
302.443	0.508299
302.451	0.508367
302.462	0.508361
302.473	0.508419
302.485	0.508452
302.496	0.508502
302.504	0.508529
302.51	0.508524
302.516	0.5085
302.521	0.508413
302.529	0.508306
302.539	0.508157
302.548	0.507988
302.555	0.507792
302.561	0.507605
302.566	0.5074
302.571	0.507207
302.577	0.507015
302.583	0.506812
302.592	0.50658
302.602	0.506335
302.615	0.506067
302.628	0.505783
302.642	0.505484
302.655	0.505187
302.669	0.504885
302.687	0.504593
302.706	0.504334
302.725	0.503974
302.741	0.503749
302.754	0.503585
302.767	0.503406
302.777	0.503266
302.785	0.503115
302.792	0.502975
302.798	0.502854
302.802	0.502754
302.806	0.502668
302.81	0.502605
302.818	0.502568
302.833	0.502543
302.853	0.502548
302.88	0.502586
302.91	0.502693
302.941	0.502886
302.975	0.503172
303.006	0.503542
303.038	0.503977
303.068	0.504489
303.091	0.505046
303.113	0.505629
303.133	0.506168
303.15	0.506725
303.165	0.507272
303.179	0.507756
303.194	0.508198
303.21	0.508591
303.227	0.508938
303.245	0.509208
303.262	0.509405
303.279	0.509527
303.294	0.509565
303.315	0.509535
303.341	0.509436
303.369	0.509267
303.397	0.509042
303.421	0.508758
303.446	0.508444
303.475	0.508112
303.504	0.50777
303.527	0.507426
303.548	0.507094
303.569	0.506792
303.588	0.506511
303.607	0.506254
303.623	0.505996
303.635	0.505882
303.644	0.505898
303.648	0.505971
303.646	0.506178
303.64	0.506429
303.634	0.506695
303.631	0.507002
303.633	0.5073
303.638	0.507558
303.645	0.507764
303.654	0.507921
303.665	0.508035
303.677	0.508115
303.692	0.50815
303.707	0.508155
303.719	0.50812
303.727	0.508048
303.734	0.507923
303.741	0.507772
303.748	0.507592
303.754	0.507392
303.759	0.507165
303.764	0.506932
303.769	0.506692
303.773	0.506584
303.777	0.506378
303.78	0.506262
303.785	0.50612
303.792	0.505986
303.802	0.505854
303.813	0.505733
303.825	0.505618
303.838	0.505535
303.853	0.505515
303.867	0.50554
303.884	0.505638
303.901	0.505774
303.918	0.505963
303.934	0.506167
303.945	0.506424
303.955	0.506671
303.962	0.506906
303.969	0.507122
303.977	0.507324
303.985	0.507514
303.994	0.507689
304.003	0.507841
304.011	0.507988
304.021	0.508124
304.033	0.508244
304.043	0.508391
304.054	0.508531
304.065	0.50866
304.076	0.508826
304.086	0.712044
304.1	0.712203
304.112	0.712334
304.124	0.712513
304.135	0.712708
304.148	0.712904
304.162	0.713145
304.177	0.713423
304.189	0.713729
304.198	0.714069
304.202	0.714439
304.202	0.714818
304.205	0.715197
304.213	0.715529
304.225	0.715793
304.243	0.715962
304.259	0.715987
304.272	0.71591
304.285	0.715692
304.295	0.715369
304.308	0.714932
304.324	0.714456
304.339	0.713901
304.359	0.713297
304.385	0.712681
304.414	0.712068
304.444	0.711444
304.47	0.710826
304.49	0.710245
304.506	0.709726
304.518	0.709397
304.526	0.709037
304.532	0.708784
304.536	0.708645
304.536	0.708637
304.535	0.708745
304.536	0.708972
304.54	0.709299
304.544	0.709729
304.549	0.710248
304.552	0.710835
304.552	0.711468
304.552	0.712131
304.551	0.712809
304.551	0.713499
304.55	0.714234
304.548	0.71483
304.546	0.715343
304.546	0.715718