Temperature	Strain_p	Strain
303.712000	0.472153	0.004722
303.713000	0.472153	0.004722
303.714000	0.472185	0.004722
303.714000	0.472283	0.004723
303.713000	0.472434	0.004724
303.710000	0.472645	0.004726
303.703000	0.472870	0.004729
303.693000	0.473120	0.004731
303.679000	0.473364	0.004734
303.666000	0.473580	0.004736
303.656000	0.473786	0.004738
303.650000	0.473973	0.004740
303.647000	0.474122	0.004741
303.642000	0.474255	0.004743
303.638000	0.474363	0.004744
303.635000	0.474438	0.004744
303.632000	0.474480	0.004745
303.623000	0.474511	0.004745
303.608000	0.474520	0.004745
303.589000	0.474501	0.004745
303.562000	0.474385	0.004744
303.533000	0.474303	0.004743
303.508000	0.474193	0.004742
303.483000	0.474056	0.004741
303.455000	0.473928	0.004739
303.429000	0.473794	0.004738
303.404000	0.473662	0.004737
303.380000	0.473551	0.004736
303.355000	0.473472	0.004735
303.333000	0.473416	0.004734
303.307000	0.473378	0.004734
303.276000	0.473385	0.004734
303.247000	0.473427	0.004734
303.220000	0.473513	0.004735
303.194000	0.473649	0.004736
303.172000	0.473822	0.004738
303.154000	0.474004	0.004740
303.136000	0.474170	0.004742
303.113000	0.474330	0.004743
303.097000	0.474401	0.004744
303.081000	0.474544	0.004745
303.060000	0.474612	0.004746
303.032000	0.474637	0.004746
303.000000	0.474595	0.004746
302.965000	0.474544	0.004745
302.928000	0.474466	0.004745
302.894000	0.474343	0.004743
302.859000	0.474183	0.004742
302.824000	0.473975	0.004740
302.791000	0.473722	0.004737
302.758000	0.473433	0.004734
302.723000	0.473098	0.004731
302.687000	0.472742	0.004727
302.654000	0.472381	0.004724
302.618000	0.472000	0.004720
302.579000	0.471621	0.004716
302.537000	0.471266	0.004713
302.496000	0.470947	0.004709
302.454000	0.470574	0.004706
302.415000	0.470348	0.004703
302.379000	0.470205	0.004702
302.345000	0.470152	0.004702
302.313000	0.470269	0.004703
302.281000	0.470391	0.004704
302.254000	0.470571	0.004706
302.227000	0.470777	0.004708
302.198000	0.471017	0.004710
302.171000	0.471252	0.004713
302.139000	0.471466	0.004715
302.103000	0.471640	0.004716
302.064000	0.471758	0.004718
302.017000	0.471830	0.004718
301.966000	0.471843	0.004718
301.912000	0.471790	0.004718
301.859000	0.471701	0.004717
301.805000	0.471539	0.004715
301.750000	0.471325	0.004713
301.694000	0.471047	0.004710
301.642000	0.470811	0.004708
301.591000	0.470570	0.004706
301.544000	0.470347	0.004703
301.505000	0.470133	0.004701
301.471000	0.469964	0.004700
301.441000	0.469847	0.004698
301.410000	0.469766	0.004698
301.374000	0.469703	0.004697
301.335000	0.469654	0.004697
301.291000	0.469649	0.004696
301.243000	0.469670	0.004697
301.189000	0.469697	0.004697
301.127000	0.469734	0.004697
301.056000	0.469793	0.004698
300.980000	0.469849	0.004698
300.901000	0.469903	0.004699
300.819000	0.469967	0.004700
300.743000	0.470025	0.004700
300.671000	0.470150	0.004702
300.600000	0.470178	0.004702
300.530000	0.470194	0.004702
300.464000	0.470194	0.004702
300.398000	0.470182	0.004702
300.333000	0.470236	0.004702
300.267000	0.470209	0.004702
300.202000	0.470130	0.004701
300.135000	0.470003	0.004700
300.069000	0.469802	0.004698
300.002000	0.469570	0.004696
299.932000	0.469255	0.004693
299.860000	0.468952	0.004690
299.786000	0.468641	0.004686
299.709000	0.468332	0.004683
299.631000	0.468026	0.004680
299.550000	0.467751	0.004678
299.468000	0.467498	0.004675
299.386000	0.467379	0.004674
299.304000	0.467249	0.004672
299.223000	0.467173	0.004672
299.143000	0.467156	0.004672
299.063000	0.467231	0.004672
298.983000	0.467353	0.004674
298.906000	0.467565	0.004676
298.831000	0.467775	0.004678
298.763000	0.468002	0.004680
298.693000	0.468225	0.004682
298.621000	0.468432	0.004684
298.546000	0.468615	0.004686
298.469000	0.468786	0.004688
298.389000	0.468931	0.004689
298.302000	0.469059	0.004691
298.217000	0.469155	0.004692
298.130000	0.469227	0.004692
298.041000	0.469247	0.004692
297.950000	0.469455	0.004695
297.856000	0.469402	0.004694
297.756000	0.469287	0.004693
297.653000	0.469143	0.004691
297.546000	0.468988	0.004690
297.436000	0.468836	0.004688
297.324000	0.468687	0.004687
297.208000	0.468594	0.004686
297.091000	0.468460	0.004685
296.974000	0.468340	0.004683
296.853000	0.468235	0.004682
296.729000	0.468167	0.004682
296.603000	0.468093	0.004681
296.476000	0.468034	0.004680
296.349000	0.467989	0.004680
296.220000	0.467952	0.004680
296.092000	0.467925	0.004679
295.966000	0.467907	0.004679
295.843000	0.467890	0.004679
295.721000	0.467884	0.004679
295.600000	0.467826	0.004678
295.474000	0.467821	0.004678
295.341000	0.467850	0.004679
295.204000	0.467896	0.004679
295.064000	0.467923	0.004679
294.923000	0.467987	0.004680
294.781000	0.468138	0.004681
294.641000	0.468170	0.004682
294.507000	0.468152	0.004682
294.375000	0.468070	0.004681
294.247000	0.467874	0.004679
294.121000	0.467642	0.004676
294.001000	0.467364	0.004674
293.888000	0.467051	0.004671
293.783000	0.466723	0.004667
293.685000	0.466397	0.004664
293.594000	0.466086	0.004661
293.506000	0.465809	0.004658
293.419000	0.465520	0.004655
293.326000	0.465367	0.004654
293.230000	0.465251	0.004653
293.128000	0.465210	0.004652
293.017000	0.465234	0.004652
292.900000	0.465326	0.004653
292.779000	0.465476	0.004655
292.662000	0.465691	0.004657
292.545000	0.465884	0.004659
292.430000	0.466084	0.004661
292.315000	0.466279	0.004663
292.199000	0.466466	0.004665
292.079000	0.466569	0.004666
291.960000	0.466633	0.004666
291.840000	0.466637	0.004666
291.718000	0.466589	0.004666
291.598000	0.466487	0.004665
291.480000	0.466321	0.004663
291.362000	0.466109	0.004661
291.242000	0.465999	0.004660
291.120000	0.465750	0.004658
290.998000	0.465486	0.004655
290.877000	0.465240	0.004652
290.759000	0.465019	0.004650
290.641000	0.464825	0.004648
290.524000	0.464701	0.004647
290.406000	0.464559	0.004646
290.286000	0.464551	0.004646
290.167000	0.464585	0.004646
290.048000	0.464648	0.004646
289.931000	0.464750	0.004648
289.815000	0.464858	0.004649
289.699000	0.464967	0.004650
289.585000	0.465070	0.004651
289.465000	0.465161	0.004652
289.342000	0.465243	0.004652
289.215000	0.465331	0.004653
289.087000	0.465450	0.004655
288.959000	0.465521	0.004655
288.829000	0.465527	0.004655
288.706000	0.465553	0.004656
288.586000	0.465558	0.004656
288.468000	0.465555	0.004656
288.351000	0.465565	0.004656
288.238000	0.465445	0.004654
288.124000	0.465367	0.004654
288.007000	0.465260	0.004653
287.891000	0.465110	0.004651
287.779000	0.464885	0.004649
287.671000	0.464626	0.004646
287.559000	0.464326	0.004643
287.446000	0.463986	0.004640
287.332000	0.463619	0.004636
287.218000	0.463236	0.004632
287.102000	0.462837	0.004628
286.984000	0.462437	0.004624
286.865000	0.462033	0.004620
286.745000	0.461645	0.004616
286.630000	0.461218	0.004612
286.519000	0.460879	0.004609
286.416000	0.460624	0.004606
286.316000	0.460448	0.004604
286.218000	0.460101	0.004601
286.119000	0.460110	0.004601
286.020000	0.460239	0.004602
285.919000	0.460442	0.004604
285.813000	0.460699	0.004607
285.704000	0.460974	0.004610
285.593000	0.461258	0.004613
285.478000	0.461544	0.004615
285.361000	0.461794	0.004618
285.238000	0.462022	0.004620
285.114000	0.462204	0.004622
284.985000	0.462345	0.004623
284.857000	0.462423	0.004624
284.728000	0.462449	0.004624
284.603000	0.462429	0.004624
284.478000	0.462380	0.004624
284.355000	0.462302	0.004623
284.236000	0.462213	0.004622
284.123000	0.462107	0.004621
284.013000	0.462030	0.004620
283.902000	0.462005	0.004620
283.791000	0.461922	0.004619
283.678000	0.461809	0.004618
283.565000	0.461679	0.004617
283.453000	0.461541	0.004615
283.346000	0.461358	0.004614
283.241000	0.461158	0.004612
283.138000	0.460978	0.004610
283.039000	0.460797	0.004608
282.938000	0.460653	0.004607
282.836000	0.460541	0.004605
282.731000	0.460461	0.004605
282.624000	0.460415	0.004604
282.519000	0.460254	0.004603
282.414000	0.460262	0.004603
282.310000	0.460279	0.004603
282.205000	0.460299	0.004603
282.101000	0.460324	0.004603
281.995000	0.460416	0.004604
281.888000	0.460403	0.004604
281.781000	0.460375	0.004604
281.673000	0.460316	0.004603
281.564000	0.460200	0.004602
281.450000	0.460047	0.004600
281.334000	0.459850	0.004599
281.219000	0.459631	0.004596
281.108000	0.459381	0.004594
281.004000	0.459112	0.004591
280.904000	0.458836	0.004588
280.808000	0.458563	0.004586
280.711000	0.458290	0.004583
280.616000	0.458034	0.004580
280.522000	0.457962	0.004580
280.424000	0.457763	0.004578
280.324000	0.457614	0.004576
280.224000	0.457539	0.004575
280.120000	0.457543	0.004575
280.015000	0.457506	0.004575
279.911000	0.457671	0.004577
279.808000	0.457909	0.004579
279.703000	0.458199	0.004582
279.599000	0.458514	0.004585
279.493000	0.458851	0.004589
279.394000	0.459143	0.004591
279.297000	0.459397	0.004594
279.202000	0.459616	0.004596
279.107000	0.459786	0.004598
279.009000	0.459921	0.004599
278.906000	0.459990	0.004600
278.797000	0.460025	0.004600
278.683000	0.460002	0.004600
278.569000	0.459887	0.004599
278.457000	0.459840	0.004598
278.344000	0.459766	0.004598
278.234000	0.459665	0.004597
278.124000	0.459572	0.004596
278.015000	0.459512	0.004595
277.907000	0.459485	0.004595
277.797000	0.459413	0.004594
277.682000	0.459341	0.004593
277.567000	0.459230	0.004592
277.451000	0.459071	0.004591
277.336000	0.458899	0.004589
277.222000	0.458701	0.004587
277.110000	0.458491	0.004585
276.999000	0.458296	0.004583
276.892000	0.458114	0.004581
276.788000	0.457959	0.004580
276.685000	0.457836	0.004578
276.583000	0.457756	0.004578
276.482000	0.457764	0.004578
276.384000	0.457788	0.004578
276.285000	0.457850	0.004579
276.184000	0.457955	0.004580
276.080000	0.458107	0.004581
275.971000	0.458292	0.004583
275.861000	0.458560	0.004586
275.749000	0.458780	0.004588
275.637000	0.458945	0.004589
275.525000	0.459054	0.004591
275.409000	0.459116	0.004591
275.292000	0.459046	0.004590
275.176000	0.458867	0.004589
275.057000	0.458590	0.004586
274.937000	0.458247	0.004582
274.814000	0.457841	0.004578
274.692000	0.457390	0.004574
274.569000	0.456901	0.004569
274.446000	0.456391	0.004564
274.322000	0.455882	0.004559
274.197000	0.455363	0.004554
274.069000	0.454856	0.004549
273.939000	0.454400	0.004544
273.810000	0.453976	0.004540
273.681000	0.453639	0.004536
273.553000	0.453368	0.004534
273.422000	0.453176	0.004532
273.292000	0.453030	0.004530
273.167000	0.452931	0.004529
273.043000	0.452842	0.004528
272.919000	0.452780	0.004528
272.793000	0.452745	0.004527
272.665000	0.452732	0.004527
272.534000	0.452733	0.004527
272.404000	0.452749	0.004527
272.274000	0.452759	0.004528
272.146000	0.452767	0.004528
272.020000	0.452608	0.004526
271.898000	0.452584	0.004526
271.777000	0.452544	0.004525
271.654000	0.452500	0.004525
271.536000	0.452465	0.004525
271.418000	0.452439	0.004524
271.301000	0.452560	0.004526
271.184000	0.452532	0.004525
271.066000	0.452506	0.004525
270.946000	0.452462	0.004525
270.823000	0.452411	0.004524
270.699000	0.452334	0.004523
270.575000	0.452281	0.004523
270.451000	0.452251	0.004523
270.327000	0.452247	0.004522
270.203000	0.452285	0.004523
270.083000	0.452358	0.004524
269.967000	0.452475	0.004525
269.853000	0.452637	0.004526
269.736000	0.452888	0.004529
269.616000	0.453146	0.004531
269.494000	0.453450	0.004535
269.368000	0.453797	0.004538
269.241000	0.454179	0.004542
269.114000	0.454573	0.004546
268.985000	0.454779	0.004548
268.857000	0.455101	0.004551
268.734000	0.455341	0.004553
268.609000	0.455460	0.004555
268.486000	0.455446	0.004554
268.362000	0.455283	0.004553
268.236000	0.454974	0.004550
268.107000	0.454540	0.004545
267.976000	0.453987	0.004540
267.842000	0.453345	0.004533
267.703000	0.452647	0.004526
267.558000	0.451886	0.004519
267.408000	0.451117	0.004511
267.258000	0.450345	0.004503
267.108000	0.449645	0.004496
266.958000	0.449016	0.004490
266.805000	0.448463	0.004485
266.650000	0.448014	0.004480
266.494000	0.447655	0.004477
266.334000	0.447459	0.004475
266.175000	0.447254	0.004473
266.016000	0.447137	0.004471
265.857000	0.447087	0.004471
265.703000	0.447060	0.004471
265.549000	0.447033	0.004470
265.396000	0.447046	0.004470
265.242000	0.447071	0.004471
265.089000	0.447113	0.004471
264.936000	0.447168	0.004472
264.784000	0.447233	0.004472
264.630000	0.447322	0.004473
264.476000	0.447407	0.004474
264.325000	0.447515	0.004475
264.176000	0.447593	0.004476
264.031000	0.447669	0.004477
263.888000	0.447750	0.004478
263.745000	0.447829	0.004478
263.604000	0.447913	0.004479
263.463000	0.447933	0.004479
263.323000	0.447964	0.004480
263.182000	0.447977	0.004480
263.041000	0.447965	0.004480
262.902000	0.447935	0.004479
262.762000	0.447897	0.004479
262.623000	0.447838	0.004478
262.486000	0.447778	0.004478
262.350000	0.447738	0.004477
262.215000	0.447742	0.004477
262.076000	0.447775	0.004478
261.937000	0.447840	0.004478
261.796000	0.447794	0.004478
261.651000	0.447897	0.004479
261.505000	0.448024	0.004480
261.360000	0.448167	0.004482
261.214000	0.448307	0.004483
261.067000	0.448442	0.004484
260.915000	0.448561	0.004486
260.763000	0.448635	0.004486
260.610000	0.448677	0.004487
260.459000	0.448669	0.004487
260.309000	0.448587	0.004486
260.160000	0.448459	0.004485
260.011000	0.448212	0.004482
259.863000	0.447880	0.004479
259.714000	0.447487	0.004475
259.565000	0.447052	0.004471
259.420000	0.446589	0.004466
259.276000	0.446135	0.004461
259.134000	0.445691	0.004457
258.994000	0.445218	0.004452
258.855000	0.444841	0.004448
258.717000	0.444528	0.004445
258.579000	0.444307	0.004443
258.440000	0.444179	0.004442
258.300000	0.444153	0.004442
258.159000	0.444377	0.004444
258.017000	0.444542	0.004445
257.876000	0.444752	0.004448
257.736000	0.444991	0.004450
257.597000	0.445218	0.004452
257.458000	0.445434	0.004454
257.322000	0.445636	0.004456
257.187000	0.445805	0.004458
257.051000	0.445946	0.004459
256.918000	0.446073	0.004461
256.788000	0.446174	0.004462
256.661000	0.446253	0.004463
256.534000	0.446283	0.004463
256.407000	0.446255	0.004463
256.278000	0.446210	0.004462
256.150000	0.446147	0.004461
256.024000	0.446061	0.004461
255.901000	0.445954	0.004460
255.780000	0.445821	0.004458
255.661000	0.445621	0.004456
255.541000	0.445438	0.004454
255.419000	0.445219	0.004452
255.295000	0.444966	0.004450
255.167000	0.444683	0.004447
255.038000	0.444381	0.004444
254.906000	0.444080	0.004441
254.776000	0.443801	0.004438
254.647000	0.443541	0.004435
254.519000	0.443342	0.004433
254.391000	0.443188	0.004432
254.268000	0.443068	0.004431
254.144000	0.443274	0.004433
254.019000	0.443249	0.004432
253.890000	0.443241	0.004432
253.759000	0.443280	0.004433
253.626000	0.443333	0.004433
253.491000	0.443410	0.004434
253.355000	0.443540	0.004435
253.219000	0.443677	0.004437
253.083000	0.443762	0.004438
252.949000	0.443777	0.004438
252.815000	0.443748	0.004437
252.679000	0.443646	0.004436
252.544000	0.443497	0.004435
252.408000	0.443288	0.004433
252.272000	0.443054	0.004431
252.134000	0.442806	0.004428
251.993000	0.442552	0.004426
251.850000	0.442316	0.004423
251.706000	0.442091	0.004421
251.558000	0.441750	0.004418
251.409000	0.441589	0.004416
251.258000	0.441494	0.004415
251.103000	0.441445	0.004414
250.947000	0.441443	0.004414
250.794000	0.441444	0.004414
250.647000	0.441544	0.004415
250.502000	0.441657	0.004417
250.361000	0.441811	0.004418
250.222000	0.441959	0.004420
250.083000	0.442108	0.004421
249.947000	0.442232	0.004422
249.810000	0.442324	0.004423
249.673000	0.442394	0.004424
249.537000	0.442440	0.004424
249.398000	0.442473	0.004425
249.257000	0.442480	0.004425
249.116000	0.442451	0.004425
248.975000	0.442384	0.004424
248.832000	0.442247	0.004422
248.687000	0.442113	0.004421
248.539000	0.441947	0.004419
248.392000	0.441748	0.004417
248.246000	0.441536	0.004415
248.100000	0.441358	0.004414
247.953000	0.441309	0.004413
247.806000	0.441134	0.004411
247.655000	0.440971	0.004410
247.505000	0.440819	0.004408
247.355000	0.440690	0.004407
247.206000	0.440585	0.004406
247.058000	0.440512	0.004405
246.911000	0.440449	0.004404
246.765000	0.440406	0.004404
246.620000	0.440379	0.004404
246.472000	0.440363	0.004404
246.324000	0.440343	0.004403
246.177000	0.440354	0.004404
246.026000	0.440435	0.004404
245.874000	0.440462	0.004405
245.721000	0.440481	0.004405
245.568000	0.440506	0.004405
245.415000	0.440518	0.004405
245.261000	0.440536	0.004405
245.108000	0.440611	0.004406
244.956000	0.440620	0.004406
244.805000	0.440586	0.004406
244.658000	0.440480	0.004405
244.512000	0.440298	0.004403
244.367000	0.440028	0.004400
244.224000	0.439684	0.004397
244.080000	0.439261	0.004393
243.936000	0.438794	0.004388
243.792000	0.438306	0.004383
243.648000	0.437822	0.004378
243.502000	0.437431	0.004374
243.356000	0.436970	0.004370
243.210000	0.436628	0.004366
243.064000	0.436393	0.004364
242.917000	0.436286	0.004363
242.769000	0.436321	0.004363
242.623000	0.436453	0.004365
242.476000	0.436674	0.004367
242.329000	0.436971	0.004370
242.181000	0.437282	0.004373
242.032000	0.437596	0.004376
241.882000	0.437918	0.004379
241.732000	0.438217	0.004382
241.581000	0.438471	0.004385
241.430000	0.438655	0.004387
241.280000	0.438739	0.004387
241.130000	0.438739	0.004387
240.984000	0.438652	0.004387
240.844000	0.438495	0.004385
240.708000	0.438267	0.004383
240.579000	0.437928	0.004379
240.453000	0.437600	0.004376
240.331000	0.437291	0.004373
240.210000	0.437000	0.004370
240.091000	0.436764	0.004368
239.970000	0.436610	0.004366
239.845000	0.436229	0.004362
239.720000	0.436173	0.004362
239.594000	0.436202	0.004362
239.467000	0.436267	0.004363
239.336000	0.436373	0.004364
239.203000	0.436547	0.004365
239.068000	0.436710	0.004367
238.932000	0.436901	0.004369
238.794000	0.437117	0.004371
238.659000	0.437379	0.004374
238.522000	0.437655	0.004377
238.384000	0.437932	0.004379
238.245000	0.438220	0.004382
238.108000	0.438568	0.004386
237.975000	0.438851	0.004389
237.843000	0.439112	0.004391
237.711000	0.439368	0.004394
237.578000	0.439607	0.004396
237.448000	0.439861	0.004399
237.318000	0.440250	0.004403
237.190000	0.440466	0.004405
237.065000	0.440598	0.004406
236.939000	0.440671	0.004407
236.809000	0.440674	0.004407
236.679000	0.440639	0.004406
236.547000	0.440475	0.004405
236.415000	0.440189	0.004402
236.282000	0.439889	0.004399
236.144000	0.439561	0.004396
236.010000	0.439200	0.004392
235.878000	0.438833	0.004388
235.749000	0.438466	0.004385
235.621000	0.438154	0.004382
235.496000	0.437835	0.004378
235.371000	0.437552	0.004376
235.246000	0.437326	0.004373
235.121000	0.437165	0.004372
234.996000	0.437078	0.004371
234.870000	0.437059	0.004371
234.744000	0.437034	0.004370
234.617000	0.437021	0.004370
234.487000	0.437004	0.004370
234.352000	0.436969	0.004370
234.213000	0.436865	0.004369
234.069000	0.436745	0.004367
233.924000	0.436599	0.004366
233.774000	0.436421	0.004364
233.621000	0.436214	0.004362
233.463000	0.435989	0.004360
233.306000	0.435757	0.004358
233.149000	0.435515	0.004355
232.996000	0.435272	0.004353
232.844000	0.435073	0.004351
232.694000	0.434943	0.004349
232.543000	0.434860	0.004349
232.391000	0.434849	0.004348
232.241000	0.434861	0.004349
232.088000	0.434909	0.004349
231.937000	0.435075	0.004351
231.786000	0.435313	0.004353
231.638000	0.435603	0.004356
231.489000	0.435919	0.004359
231.340000	0.436258	0.004363
231.193000	0.436602	0.004366
231.047000	0.436983	0.004370
230.902000	0.437375	0.004374
230.757000	0.437785	0.004378
230.612000	0.438244	0.004382
230.467000	0.438707	0.004387
230.320000	0.439188	0.004392
230.174000	0.439717	0.004397
230.028000	0.440275	0.004403
229.881000	0.440848	0.004408
229.733000	0.441427	0.004414
229.586000	0.441908	0.004419
229.439000	0.442462	0.004425
229.291000	0.442909	0.004429
229.142000	0.443252	0.004433
228.992000	0.443466	0.004435
228.844000	0.443520	0.004435
228.695000	0.443461	0.004435
228.545000	0.443293	0.004433
228.391000	0.443048	0.004430
228.233000	0.442732	0.004427
228.070000	0.442365	0.004424
227.906000	0.441940	0.004419
227.741000	0.441511	0.004415
227.575000	0.441112	0.004411
227.409000	0.440794	0.004408
227.239000	0.440582	0.004406
227.071000	0.440499	0.004405
226.903000	0.440548	0.004405
226.734000	0.440692	0.004407
226.565000	0.440978	0.004410
226.397000	0.441413	0.004414
226.231000	0.441859	0.004419
226.065000	0.442326	0.004423
225.898000	0.442792	0.004428
225.732000	0.443221	0.004432
225.564000	0.443602	0.004436
225.396000	0.444073	0.004441
225.228000	0.444386	0.004444
225.062000	0.444636	0.004446
224.898000	0.444865	0.004449
224.735000	0.445073	0.004451
224.573000	0.445269	0.004453
224.412000	0.445417	0.004454
224.254000	0.445523	0.004455
224.097000	0.445594	0.004456
223.938000	0.445611	0.004456
223.781000	0.445588	0.004456
223.623000	0.445539	0.004455
223.467000	0.445475	0.004455
223.310000	0.445330	0.004453
223.154000	0.445219	0.004452
222.997000	0.445107	0.004451
222.841000	0.444988	0.004450
222.688000	0.444870	0.004449
222.536000	0.444692	0.004447
222.388000	0.444562	0.004446
222.243000	0.444476	0.004445
222.104000	0.444463	0.004445
221.971000	0.444485	0.004445
221.840000	0.444626	0.004446
221.711000	0.444856	0.004449
221.581000	0.445162	0.004452
221.448000	0.445587	0.004456
221.313000	0.446012	0.004460
221.178000	0.446476	0.004465
221.044000	0.446961	0.004470
220.910000	0.447458	0.004475
220.773000	0.447960	0.004480
220.640000	0.448417	0.004484
220.504000	0.448893	0.004489
220.368000	0.449338	0.004493
220.230000	0.449735	0.004497
220.093000	0.450110	0.004501
219.956000	0.450402	0.004504
219.816000	0.450695	0.004507
219.673000	0.451008	0.004510
219.528000	0.451368	0.004514
219.379000	0.451807	0.004518
219.227000	0.452319	0.004523
219.071000	0.452918	0.004529
218.910000	0.453587	0.004536
218.745000	0.454317	0.004543
218.577000	0.455097	0.004551
218.408000	0.455926	0.004559
218.241000	0.456791	0.004568
218.078000	0.457679	0.004577
217.919000	0.458591	0.004586
217.761000	0.459622	0.004596
217.605000	0.460563	0.004606
217.449000	0.461498	0.004615
217.292000	0.462451	0.004625
217.136000	0.463423	0.004634
216.984000	0.464429	0.004644
216.839000	0.465394	0.004654
216.699000	0.466324	0.004663
216.564000	0.467218	0.004672
216.428000	0.468071	0.004681
216.294000	0.468879	0.004689
216.163000	0.469642	0.004696
216.031000	0.470372	0.004704
215.904000	0.471032	0.004710
215.776000	0.471651	0.004717
215.649000	0.472242	0.004722
215.522000	0.472779	0.004728
215.395000	0.473320	0.004733
215.267000	0.473749	0.004737
215.138000	0.474257	0.004743
215.008000	0.474791	0.004748
214.881000	0.475370	0.004754
214.755000	0.476037	0.004760
214.630000	0.476765	0.004768
214.507000	0.477617	0.004776
214.383000	0.478575	0.004786
214.260000	0.479637	0.004796
214.138000	0.480817	0.004808
214.014000	0.482089	0.004821
213.889000	0.483461	0.004835
213.764000	0.484910	0.004849
213.637000	0.486431	0.004864
213.509000	0.488014	0.004880
213.382000	0.489645	0.004896
213.255000	0.491315	0.004913
213.126000	0.493010	0.004930
212.997000	0.494711	0.004947
212.867000	0.496306	0.004963
212.738000	0.497951	0.004980
212.610000	0.499568	0.004996
212.482000	0.501168	0.005012
212.355000	0.502781	0.005028
212.229000	0.504391	0.005044
212.104000	0.506029	0.005060
211.979000	0.507707	0.005077
211.853000	0.509426	0.005094
211.726000	0.511136	0.005111
211.601000	0.512855	0.005129
211.477000	0.514574	0.005146
211.355000	0.516171	0.005162
211.232000	0.517885	0.005179
211.109000	0.519587	0.005196
210.987000	0.521240	0.005212
210.865000	0.522837	0.005228
210.743000	0.524363	0.005244
210.623000	0.525846	0.005258
210.503000	0.527287	0.005273
210.385000	0.528689	0.005287
210.266000	0.530087	0.005301
210.149000	0.531491	0.005315
210.031000	0.532905	0.005329
209.916000	0.534329	0.005343
209.801000	0.535800	0.005358
209.688000	0.537284	0.005373
209.576000	0.538774	0.005388
209.466000	0.540250	0.005403
209.358000	0.541723	0.005417
209.254000	0.543236	0.005432
209.153000	0.544691	0.005447
209.056000	0.546130	0.005461
208.959000	0.547541	0.005475
208.863000	0.548973	0.005490
208.764000	0.550346	0.005503
208.660000	0.551715	0.005517
208.552000	0.553102	0.005531
208.443000	0.554729	0.005547
208.334000	0.556194	0.005562
208.226000	0.557682	0.005577
208.119000	0.559219	0.005592
208.013000	0.560807	0.005608
207.905000	0.562449	0.005624
207.797000	0.564161	0.005642
207.689000	0.565922	0.005659
207.581000	0.567731	0.005677
207.475000	0.569580	0.005696
207.369000	0.571434	0.005714
207.262000	0.573328	0.005733
207.155000	0.575243	0.005752
207.046000	0.577154	0.005772
206.935000	0.579083	0.005791
206.822000	0.581045	0.005810
206.710000	0.583061	0.005831
206.599000	0.585135	0.005851
206.486000	0.587290	0.005873
206.372000	0.589579	0.005896
206.257000	0.592023	0.005920
206.142000	0.594659	0.005947
206.026000	0.597504	0.005975
205.909000	0.600580	0.006006
205.788000	0.603936	0.006039
205.669000	0.607402	0.006074
205.548000	0.611170	0.006112
205.428000	0.615129	0.006151
205.308000	0.619227	0.006192
205.188000	0.623412	0.006234
205.071000	0.627666	0.006277
204.954000	0.631979	0.006320
204.839000	0.636330	0.006363
204.724000	0.640697	0.006407
204.610000	0.645072	0.006451
204.497000	0.649453	0.006495
204.388000	0.653844	0.006538
204.277000	0.658229	0.006582
204.166000	0.662742	0.006627
204.056000	0.667136	0.006671
203.943000	0.671547	0.006715
203.830000	0.675982	0.006760
203.717000	0.680442	0.006804
203.603000	0.685023	0.006850
203.487000	0.689523	0.006895
203.366000	0.694011	0.006940
203.242000	0.698436	0.006984
203.114000	0.702781	0.007028
202.981000	0.707091	0.007071
202.843000	0.711300	0.007113
202.702000	0.715439	0.007154
202.560000	0.719527	0.007195
202.417000	0.723554	0.007236
202.274000	0.727578	0.007276
202.131000	0.731583	0.007316
201.988000	0.735604	0.007356
201.845000	0.739623	0.007396
201.702000	0.743417	0.007434
201.559000	0.747464	0.007475
201.417000	0.751539	0.007515
201.277000	0.755658	0.007557
201.136000	0.759833	0.007598
200.995000	0.764164	0.007642
200.855000	0.768474	0.007685
200.716000	0.772826	0.007728
200.579000	0.777196	0.007772
200.441000	0.781566	0.007816
200.302000	0.785887	0.007859
200.165000	0.790171	0.007902
200.029000	0.794488	0.007945
199.894000	0.798692	0.007987
199.759000	0.802916	0.008029
199.624000	0.807171	0.008072
199.491000	0.811471	0.008115
199.358000	0.815820	0.008158
199.225000	0.820229	0.008202
199.092000	0.824733	0.008247
198.958000	0.829386	0.008294
198.824000	0.834109	0.008341
198.688000	0.838968	0.008390
198.553000	0.843955	0.008440
198.416000	0.849083	0.008491
198.275000	0.854312	0.008543
198.133000	0.859642	0.008596
197.988000	0.865029	0.008650
197.841000	0.870462	0.008705
197.691000	0.875914	0.008759
197.540000	0.881353	0.008814
197.385000	0.886802	0.008868
197.229000	0.892254	0.008923
197.071000	0.897725	0.008977
196.912000	0.903193	0.009032
196.750000	0.908660	0.009087
196.587000	0.914125	0.009141
196.423000	0.919612	0.009196
196.259000	0.925287	0.009253
196.095000	0.931043	0.009310
195.932000	0.937040	0.009370
195.769000	0.943304	0.009433
195.609000	0.949841	0.009498
195.451000	0.956501	0.009565
195.294000	0.963630	0.009636
195.139000	0.971092	0.009711
194.984000	0.978864	0.009789
194.830000	0.986928	0.009869
194.675000	0.995288	0.009953
194.520000	1.003920	0.010039
194.363000	1.012850	0.010129
194.207000	1.022070	0.010221
194.054000	1.031550	0.010316
193.901000	1.041270	0.010413
193.748000	1.051250	0.010513
193.597000	1.061420	0.010614
193.443000	1.071760	0.010718
193.286000	1.082210	0.010822
193.130000	1.092670	0.010927
192.972000	1.102940	0.011029
192.812000	1.113310	0.011133
192.653000	1.123610	0.011236
192.493000	1.133780	0.011338
192.336000	1.143830	0.011438
192.180000	1.153710	0.011537
192.028000	1.163410	0.011634
191.876000	1.172930	0.011729
191.730000	1.182180	0.011822
191.588000	1.191260	0.011913
191.449000	1.200120	0.012001
191.311000	1.208790	0.012088
191.173000	1.217290	0.012173
191.034000	1.225660	0.012257
190.894000	1.233960	0.012340
190.754000	1.242200	0.012422
190.610000	1.250430	0.012504
190.461000	1.258650	0.012587
190.309000	1.266910	0.012669
190.154000	1.275230	0.012752
189.997000	1.283590	0.012836
189.841000	1.292010	0.012920
189.684000	1.300360	0.013004
189.528000	1.308910	0.013089
189.370000	1.317510	0.013175
189.210000	1.326190	0.013262
189.050000	1.334860	0.013349
188.886000	1.343530	0.013435
188.722000	1.352200	0.013522
188.559000	1.360840	0.013608
188.397000	1.369490	0.013695
188.236000	1.378120	0.013781
188.075000	1.386730	0.013867
187.912000	1.395310	0.013953
187.748000	1.403870	0.014039
187.584000	1.412370	0.014124
187.420000	1.420840	0.014208
187.257000	1.429250	0.014293
187.097000	1.437610	0.014376
186.936000	1.445900	0.014459
186.776000	1.454170	0.014542
186.621000	1.462670	0.014627
186.469000	1.470920	0.014709
186.321000	1.479160	0.014792
186.174000	1.487430	0.014874
186.030000	1.495700	0.014957
185.889000	1.503980	0.015040
185.750000	1.512260	0.015123
185.613000	1.520570	0.015206
185.479000	1.528890	0.015289
185.345000	1.537220	0.015372
185.211000	1.545590	0.015456
185.080000	1.554020	0.015540
184.951000	1.562460	0.015625
184.822000	1.571120	0.015711
184.693000	1.579930	0.015799
184.565000	1.588900	0.015889
184.438000	1.598070	0.015981
184.311000	1.607430	0.016074
184.181000	1.616980	0.016170
184.052000	1.626700	0.016267
183.920000	1.636610	0.016366
183.788000	1.646680	0.016467
183.655000	1.656920	0.016569
183.520000	1.667360	0.016674
183.388000	1.677990	0.016780
183.255000	1.688850	0.016889
183.121000	1.699880	0.016999
182.986000	1.711100	0.017111
182.849000	1.722510	0.017225
182.708000	1.734110	0.017341
182.566000	1.745900	0.017459
182.425000	1.757880	0.017579
182.285000	1.770030	0.017700
182.148000	1.782340	0.017823
182.013000	1.794790	0.017948
181.880000	1.807370	0.018074
181.750000	1.820050	0.018201
181.622000	1.832770	0.018328
181.498000	1.845340	0.018453
181.375000	1.857850	0.018579
181.256000	1.870120	0.018701
181.137000	1.882130	0.018821
181.019000	1.893850	0.018939
180.899000	1.905210	0.019052
180.777000	1.916310	0.019163
180.656000	1.927100	0.019271
180.534000	1.937560	0.019376
180.413000	1.947680	0.019477
180.292000	1.957460	0.019575
180.171000	1.966910	0.019669
180.051000	1.976010	0.019760
179.934000	1.984790	0.019848
179.819000	1.993280	0.019933
179.703000	2.001490	0.020015
179.586000	2.009470	0.020095
179.468000	2.017240	0.020172
179.347000	2.024830	0.020248
179.225000	2.032300	0.020323
179.106000	2.039680	0.020397
178.991000	2.047170	0.020472
178.876000	2.054500	0.020545
178.765000	2.061850	0.020619
178.656000	2.069220	0.020692
178.545000	2.076600	0.020766
178.434000	2.084030	0.020840
178.324000	2.091520	0.020915
178.213000	2.099020	0.020990
178.106000	2.106590	0.021066
177.999000	2.114200	0.021142
177.891000	2.121870	0.021219
177.778000	2.129570	0.021296
177.666000	2.137270	0.021373
177.554000	2.144980	0.021450
177.443000	2.152650	0.021527
177.333000	2.160300	0.021603
177.223000	2.167900	0.021679
177.116000	2.175480	0.021755
177.008000	2.183010	0.021830
176.900000	2.190480	0.021905
176.793000	2.197960	0.021980
176.687000	2.205350	0.022054
176.581000	2.212720	0.022127
176.475000	2.220060	0.022201
176.367000	2.227390	0.022274
176.259000	2.234660	0.022347
176.153000	2.241950	0.022420
176.048000	2.249220	0.022492
175.944000	2.256480	0.022565
175.839000	2.263720	0.022637
175.731000	2.270930	0.022709
175.624000	2.278120	0.022781
175.518000	2.285270	0.022853
175.407000	2.292410	0.022924
175.295000	2.299530	0.022995
175.183000	2.306640	0.023066
175.070000	2.313860	0.023139
174.957000	2.320950	0.023210
174.844000	2.328050	0.023281
174.733000	2.335170	0.023352
174.620000	2.342200	0.023422
174.509000	2.349320	0.023493
174.399000	2.356500	0.023565
174.289000	2.363720	0.023637
174.179000	2.370950	0.023710
174.070000	2.378230	0.023782
173.961000	2.385500	0.023855
173.852000	2.392780	0.023928
173.744000	2.400060	0.024001
173.637000	2.407340	0.024073
173.532000	2.414660	0.024147
173.425000	2.421990	0.024220
173.318000	2.429310	0.024293
173.211000	2.436610	0.024366
173.103000	2.443870	0.024439
172.995000	2.451060	0.024511
172.885000	2.458190	0.024582
172.777000	2.465240	0.024652
172.669000	2.472190	0.024722
172.561000	2.479050	0.024791
172.454000	2.485820	0.024858
172.348000	2.492450	0.024925
172.243000	2.499040	0.024990
172.137000	2.505540	0.025055
172.032000	2.511930	0.025119
171.926000	2.518230	0.025182
171.823000	2.524360	0.025244
171.720000	2.530380	0.025304
171.619000	2.536300	0.025363
171.520000	2.542100	0.025421
171.423000	2.547810	0.025478
171.326000	2.553380	0.025534
171.233000	2.558870	0.025589
171.139000	2.564280	0.025643
171.046000	2.569610	0.025696
170.953000	2.574870	0.025749
170.860000	2.580080	0.025801
170.767000	2.585250	0.025853
170.671000	2.590380	0.025904
170.574000	2.595480	0.025955
170.476000	2.600620	0.026006
170.379000	2.605740	0.026057
170.283000	2.610860	0.026109
170.186000	2.615970	0.026160
170.090000	2.621100	0.026211
169.997000	2.626190	0.026262
169.908000	2.631270	0.026313
169.818000	2.636320	0.026363
169.726000	2.641380	0.026414
169.634000	2.646420	0.026464
169.540000	2.651440	0.026514
169.444000	2.656470	0.026565
169.344000	2.661480	0.026615
169.243000	2.666490	0.026665
169.141000	2.671480	0.026715
169.033000	2.676440	0.026764
168.924000	2.681360	0.026814
168.814000	2.686250	0.026863
168.705000	2.691080	0.026911
168.597000	2.695860	0.026959
168.488000	2.700580	0.027006
168.380000	2.705240	0.027052
168.270000	2.709820	0.027098
168.158000	2.714350	0.027144
168.046000	2.718820	0.027188
167.936000	2.723180	0.027232
167.826000	2.727480	0.027275
167.713000	2.731740	0.027317
167.603000	2.735950	0.027360
167.493000	2.740120	0.027401
167.384000	2.744260	0.027443
167.273000	2.748380	0.027484
167.162000	2.752520	0.027525
167.051000	2.756690	0.027567
166.936000	2.760910	0.027609
166.819000	2.765150	0.027652
166.699000	2.769430	0.027694
166.575000	2.773720	0.027737
166.449000	2.778060	0.027781
166.321000	2.782470	0.027825
166.194000	2.786900	0.027869
166.067000	2.791490	0.027915
165.939000	2.796190	0.027962
165.811000	2.800960	0.028010
165.681000	2.805840	0.028058
165.551000	2.810800	0.028108
165.422000	2.815860	0.028159
165.292000	2.821020	0.028210
165.161000	2.826260	0.028263
165.030000	2.831610	0.028316
164.897000	2.837060	0.028371
164.764000	2.842650	0.028427
164.630000	2.848350	0.028484
164.494000	2.854180	0.028542
164.356000	2.860120	0.028601
164.219000	2.866160	0.028662
164.077000	2.872170	0.028722
163.935000	2.878380	0.028784
163.795000	2.884630	0.028846
163.652000	2.890890	0.028909
163.510000	2.897260	0.028973
163.368000	2.903520	0.029035
163.226000	2.909710	0.029097
163.086000	2.915860	0.029159
162.946000	2.921940	0.029219
162.805000	2.927880	0.029279
162.665000	2.933820	0.029338
162.525000	2.939690	0.029397
162.387000	2.945490	0.029455
162.248000	2.951220	0.029512
162.108000	2.956870	0.029569
161.966000	2.962450	0.029625
161.824000	2.967960	0.029680
161.682000	2.973370	0.029734
161.540000	2.978680	0.029787
161.396000	2.983850	0.029839
161.251000	2.988900	0.029889
161.104000	2.993800	0.029938
160.956000	2.998550	0.029986
160.808000	3.003180	0.030032
160.659000	3.007700	0.030077
160.510000	3.012030	0.030120
160.358000	3.016240	0.030162
160.207000	3.020330	0.030203
160.056000	3.024310	0.030243
159.905000	3.028160	0.030282
159.752000	3.031890	0.030319
159.601000	3.035500	0.030355
159.450000	3.039000	0.030390
159.298000	3.042370	0.030424
159.148000	3.045620	0.030456
158.997000	3.048800	0.030488
158.845000	3.051850	0.030519
158.692000	3.054790	0.030548
158.539000	3.057620	0.030576
158.386000	3.060370	0.030604
158.231000	3.063010	0.030630
158.076000	3.065640	0.030656
157.920000	3.068110	0.030681
157.766000	3.070580	0.030706
157.612000	3.072980	0.030730
157.459000	3.075410	0.030754
157.306000	3.077820	0.030778
157.155000	3.080250	0.030803
157.002000	3.082660	0.030827
156.850000	3.085120	0.030851
156.700000	3.087560	0.030876
156.549000	3.090020	0.030900
156.398000	3.092490	0.030925
156.248000	3.094980	0.030950
156.099000	3.097470	0.030975
155.950000	3.099980	0.031000
155.800000	3.102500	0.031025
155.649000	3.105050	0.031051
155.498000	3.107630	0.031076
155.346000	3.110270	0.031103
155.192000	3.112990	0.031130
155.038000	3.115780	0.031158
154.886000	3.118660	0.031187
154.734000	3.121650	0.031217
154.583000	3.124730	0.031247
154.432000	3.127900	0.031279
154.280000	3.131170	0.031312
154.129000	3.134480	0.031345
153.978000	3.137830	0.031378
153.829000	3.141260	0.031413
153.679000	3.144710	0.031447
153.530000	3.148240	0.031482
153.382000	3.151740	0.031517
153.234000	3.155270	0.031553
153.086000	3.158830	0.031588
152.939000	3.162400	0.031624
152.793000	3.165980	0.031660
152.644000	3.169560	0.031696
152.497000	3.173370	0.031734
152.350000	3.176950	0.031770
152.204000	3.180520	0.031805
152.057000	3.184100	0.031841
151.909000	3.187630	0.031876
151.760000	3.191110	0.031911
151.611000	3.194500	0.031945
151.462000	3.197770	0.031978
151.312000	3.200890	0.032009
151.161000	3.203870	0.032039
151.011000	3.206700	0.032067
150.860000	3.209360	0.032094
150.710000	3.211880	0.032119
150.561000	3.214250	0.032143
150.410000	3.216620	0.032166
150.257000	3.218750	0.032188
150.103000	3.220780	0.032208
149.950000	3.222690	0.032227
149.796000	3.224490	0.032245
149.639000	3.226200	0.032262
149.480000	3.227810	0.032278
149.322000	3.229400	0.032294
149.163000	3.230870	0.032309
149.007000	3.232280	0.032323
148.851000	3.233660	0.032337
148.692000	3.235040	0.032350
148.532000	3.236310	0.032363
148.374000	3.237680	0.032377
148.213000	3.239040	0.032390
148.050000	3.240360	0.032404
147.890000	3.241670	0.032417
147.730000	3.243000	0.032430
147.571000	3.244260	0.032443
147.412000	3.245520	0.032455
147.252000	3.246760	0.032468
147.092000	3.248000	0.032480
146.932000	3.249220	0.032492
146.773000	3.250440	0.032504
146.617000	3.251680	0.032517
146.461000	3.252900	0.032529
146.306000	3.254150	0.032542
146.152000	3.255350	0.032554
145.998000	3.256630	0.032566
145.845000	3.257920	0.032579
145.692000	3.259250	0.032593
145.540000	3.260610	0.032606
145.388000	3.261930	0.032619
145.235000	3.263340	0.032633
145.084000	3.264710	0.032647
144.933000	3.266080	0.032661
144.783000	3.267410	0.032674
144.634000	3.268700	0.032687
144.488000	3.270030	0.032700
144.346000	3.271370	0.032714
144.207000	3.272720	0.032727
144.070000	3.274090	0.032741
143.936000	3.275500	0.032755
143.804000	3.276920	0.032769
143.673000	3.278380	0.032784
143.540000	3.279880	0.032799
143.407000	3.281520	0.032815
143.273000	3.283090	0.032831
143.139000	3.284720	0.032847
143.005000	3.286320	0.032863
142.871000	3.288070	0.032881
142.736000	3.289820	0.032898
142.602000	3.291600	0.032916
142.466000	3.293370	0.032934
142.330000	3.295130	0.032951
142.193000	3.296870	0.032969
142.057000	3.298600	0.032986
141.921000	3.300290	0.033003
141.787000	3.301970	0.033020
141.652000	3.303640	0.033036
141.518000	3.305280	0.033053
141.384000	3.306950	0.033070
141.249000	3.308630	0.033086
141.112000	3.310330	0.033103
140.975000	3.312030	0.033120
140.839000	3.313760	0.033138
140.704000	3.315480	0.033155
140.568000	3.317200	0.033172
140.434000	3.318880	0.033189
140.298000	3.320540	0.033205
140.164000	3.322160	0.033222
140.030000	3.323690	0.033237
139.894000	3.325150	0.033252
139.760000	3.326520	0.033265
139.627000	3.327760	0.033278
139.496000	3.328910	0.033289
139.369000	3.329940	0.033299
139.244000	3.330860	0.033309
139.119000	3.331640	0.033316
138.996000	3.332260	0.033323
138.876000	3.332800	0.033328
138.757000	3.333260	0.033333
138.638000	3.333580	0.033336
138.520000	3.333760	0.033338
138.401000	3.333940	0.033339
138.280000	3.334080	0.033341
138.164000	3.333980	0.033340
138.047000	3.334090	0.033341
137.931000	3.334210	0.033342
137.818000	3.334360	0.033344
137.705000	3.334520	0.033345
137.592000	3.334660	0.033347
137.479000	3.334850	0.033349
137.366000	3.335050	0.033351
137.253000	3.335270	0.033353
137.141000	3.335500	0.033355
137.030000	3.335740	0.033357
136.920000	3.336020	0.033360
136.810000	3.336300	0.033363
136.699000	3.336610	0.033366
136.587000	3.336840	0.033368
136.474000	3.337210	0.033372
136.360000	3.337590	0.033376
136.246000	3.338000	0.033380
136.131000	3.338440	0.033384
136.016000	3.338890	0.033389
135.902000	3.339380	0.033394
135.787000	3.339840	0.033398
135.671000	3.340390	0.033404
135.554000	3.340960	0.033410
135.439000	3.341540	0.033415
135.324000	3.342140	0.033421
135.206000	3.342850	0.033429
135.090000	3.343470	0.033435
134.972000	3.344130	0.033441
134.852000	3.344800	0.033448
134.732000	3.345490	0.033455
134.609000	3.346190	0.033462
134.483000	3.346910	0.033469
134.358000	3.347560	0.033476
134.227000	3.348330	0.033483
134.095000	3.349110	0.033491
133.963000	3.349930	0.033499
133.829000	3.350770	0.033508
133.694000	3.351640	0.033516
133.560000	3.352560	0.033526
133.426000	3.353470	0.033535
133.292000	3.354460	0.033545
133.158000	3.355400	0.033554
133.025000	3.356340	0.033563
132.893000	3.357260	0.033573
132.760000	3.358180	0.033582
132.627000	3.359080	0.033591
132.493000	3.359980	0.033600
132.360000	3.360880	0.033609
132.227000	3.361780	0.033618
132.094000	3.362680	0.033627
131.962000	3.363610	0.033636
131.832000	3.364460	0.033645
131.700000	3.365280	0.033653
131.569000	3.366100	0.033661
131.437000	3.366900	0.033669
131.305000	3.367680	0.033677
131.173000	3.368510	0.033685
131.040000	3.369280	0.033693
130.908000	3.370030	0.033700
130.775000	3.370630	0.033706
130.642000	3.371300	0.033713
130.509000	3.371920	0.033719
130.376000	3.372500	0.033725
130.242000	3.373000	0.033730
130.107000	3.373440	0.033734
129.972000	3.373800	0.033738
129.837000	3.374130	0.033741
129.701000	3.374430	0.033744
129.564000	3.374650	0.033747
129.427000	3.374850	0.033749
129.291000	3.375030	0.033750
129.154000	3.375200	0.033752
129.018000	3.375350	0.033754
128.882000	3.375530	0.033755
128.744000	3.375660	0.033757
128.607000	3.375660	0.033757
128.470000	3.375730	0.033757
128.332000	3.375790	0.033758
128.195000	3.375800	0.033758
128.058000	3.375800	0.033758
127.920000	3.375750	0.033758
127.782000	3.375680	0.033757
127.644000	3.375580	0.033756
127.508000	3.375470	0.033755
127.371000	3.375350	0.033754
127.233000	3.375230	0.033752
127.097000	3.375000	0.033750
126.961000	3.374980	0.033750
126.824000	3.374980	0.033750
126.689000	3.375050	0.033751
126.552000	3.375200	0.033752
126.413000	3.375430	0.033754
126.274000	3.375760	0.033758
126.134000	3.376110	0.033761
125.992000	3.376500	0.033765
125.851000	3.376960	0.033770
125.711000	3.377500	0.033775
125.571000	3.377980	0.033780
125.429000	3.378450	0.033785
125.286000	3.378890	0.033789
125.140000	3.379290	0.033793
124.992000	3.379700	0.033797
124.844000	3.380060	0.033801
124.696000	3.380400	0.033804
124.547000	3.380820	0.033808
124.400000	3.381160	0.033812
124.255000	3.381540	0.033815
124.109000	3.381950	0.033820
123.966000	3.382410	0.033824
123.823000	3.382930	0.033829
123.681000	3.383450	0.033835
123.541000	3.384030	0.033840
123.399000	3.384630	0.033846
123.258000	3.385210	0.033852
123.116000	3.385800	0.033858
122.972000	3.386380	0.033864
122.827000	3.386930	0.033869
122.681000	3.387440	0.033874
122.534000	3.387920	0.033879
122.388000	3.388360	0.033884
122.240000	3.388740	0.033887
122.091000	3.389090	0.033891
121.939000	3.389310	0.033893
121.788000	3.389540	0.033895
121.635000	3.389770	0.033898
121.481000	3.389980	0.033900
121.328000	3.390200	0.033902
121.174000	3.390440	0.033904
121.022000	3.390780	0.033908
120.869000	3.391070	0.033911
120.718000	3.391400	0.033914
120.567000	3.391730	0.033917
120.418000	3.392130	0.033921
120.267000	3.392420	0.033924
120.119000	3.392710	0.033927
119.973000	3.392960	0.033930
119.824000	3.393180	0.033932
119.677000	3.393360	0.033934
119.530000	3.393480	0.033935
119.383000	3.393610	0.033936
119.237000	3.393690	0.033937
119.091000	3.393740	0.033937
118.945000	3.393780	0.033938
118.799000	3.393840	0.033938
118.653000	3.393850	0.033939
118.507000	3.393870	0.033939
118.362000	3.393890	0.033939
118.216000	3.393930	0.033939
118.070000	3.393940	0.033939
117.923000	3.393950	0.033940
117.776000	3.393920	0.033939
117.630000	3.393910	0.033939
117.484000	3.393900	0.033939
117.338000	3.393870	0.033939
117.191000	3.393820	0.033938
117.045000	3.393740	0.033937
116.900000	3.393700	0.033937
116.755000	3.393570	0.033936
116.611000	3.393450	0.033935
116.466000	3.393350	0.033934
116.321000	3.393260	0.033933
116.173000	3.393200	0.033932
116.025000	3.393160	0.033932
115.878000	3.393160	0.033932
115.729000	3.393190	0.033932
115.581000	3.393240	0.033932
115.434000	3.393330	0.033933
115.287000	3.393420	0.033934
115.141000	3.393590	0.033936
114.995000	3.393780	0.033938
114.848000	3.393990	0.033940
114.700000	3.394210	0.033942
114.555000	3.394450	0.033945
114.408000	3.394650	0.033947
114.263000	3.394900	0.033949
114.119000	3.395260	0.033953
113.976000	3.395540	0.033955
113.834000	3.395840	0.033958
113.692000	3.396160	0.033962
113.551000	3.396490	0.033965
113.409000	3.396820	0.033968
113.268000	3.397150	0.033972
113.127000	3.397450	0.033975
112.988000	3.397750	0.033978
112.850000	3.398030	0.033980
112.711000	3.398270	0.033983
112.572000	3.398620	0.033986
112.433000	3.398790	0.033988
112.293000	3.398980	0.033990
112.154000	3.399150	0.033992
112.015000	3.399320	0.033993
111.874000	3.399580	0.033996
111.733000	3.399700	0.033997
111.593000	3.399890	0.033999
111.453000	3.400110	0.034001
111.314000	3.400370	0.034004
111.176000	3.400670	0.034007
111.041000	3.400990	0.034010
110.907000	3.401370	0.034014
110.774000	3.401770	0.034018
110.641000	3.402180	0.034022
110.506000	3.402580	0.034026
110.371000	3.402960	0.034030
110.236000	3.403320	0.034033
110.100000	3.403600	0.034036
109.960000	3.403890	0.034039
109.822000	3.404130	0.034041
109.681000	3.404260	0.034043
109.541000	3.404440	0.034044
109.400000	3.404510	0.034045
109.258000	3.404570	0.034046
109.116000	3.404610	0.034046
108.973000	3.404650	0.034047
108.829000	3.404710	0.034047
108.686000	3.404830	0.034048
108.543000	3.404950	0.034050
108.400000	3.405110	0.034051
108.258000	3.405280	0.034053
108.117000	3.405460	0.034055
107.977000	3.405650	0.034057
107.838000	3.405840	0.034058
107.699000	3.406020	0.034060
107.559000	3.406280	0.034063
107.420000	3.406470	0.034065
107.280000	3.406610	0.034066
107.140000	3.406690	0.034067
106.998000	3.406760	0.034068
106.854000	3.406790	0.034068
106.710000	3.406700	0.034067
106.564000	3.406600	0.034066
106.418000	3.406530	0.034065
106.272000	3.406450	0.034065
106.124000	3.406400	0.034064
105.978000	3.406400	0.034064
105.830000	3.406430	0.034064
105.684000	3.406500	0.034065
105.540000	3.406600	0.034066
105.394000	3.406730	0.034067
105.250000	3.406890	0.034069
105.104000	3.407070	0.034071
104.959000	3.407270	0.034073
104.814000	3.407460	0.034075
104.667000	3.407800	0.034078
104.520000	3.407940	0.034079
104.375000	3.408100	0.034081
104.231000	3.408250	0.034083
104.089000	3.408370	0.034084
103.945000	3.408460	0.034085
103.803000	3.408550	0.034086
103.661000	3.408660	0.034087
103.523000	3.408730	0.034087
103.386000	3.408790	0.034088
103.250000	3.408890	0.034089
103.115000	3.408980	0.034090
102.982000	3.409100	0.034091
102.849000	3.409230	0.034092
102.717000	3.409270	0.034093
102.585000	3.409420	0.034094
102.452000	3.409580	0.034096
102.318000	3.409730	0.034097
102.184000	3.409950	0.034100
102.050000	3.410100	0.034101
101.916000	3.410240	0.034102
101.782000	3.410390	0.034104
101.647000	3.410540	0.034105
101.514000	3.410700	0.034107
101.382000	3.410850	0.034109
101.252000	3.411010	0.034110
101.121000	3.411160	0.034112
100.991000	3.411290	0.034113
100.861000	3.411380	0.034114
100.731000	3.411450	0.034115
100.599000	3.411490	0.034115
100.467000	3.411530	0.034115
100.336000	3.411530	0.034115
100.205000	3.411490	0.034115
100.075000	3.411430	0.034114
99.946200	3.411220	0.034112
99.816800	3.411160	0.034112
99.688000	3.411100	0.034111
99.560800	3.411070	0.034111
99.432600	3.411080	0.034111
99.303900	3.411120	0.034111
99.174600	3.411180	0.034112
99.044600	3.411290	0.034113
98.913100	3.411410	0.034114
98.782900	3.411550	0.034116
98.652400	3.411670	0.034117
98.522100	3.411780	0.034118
98.391700	3.411870	0.034119
98.260200	3.411930	0.034119
98.130900	3.411880	0.034119
98.000800	3.411900	0.034119
97.869800	3.411890	0.034119
97.737100	3.411710	0.034117
97.603400	3.411630	0.034116
97.470200	3.411510	0.034115
97.336800	3.411400	0.034114
97.202700	3.411270	0.034113
97.069300	3.411170	0.034112
96.936800	3.411100	0.034111
96.804500	3.411070	0.034111
96.674100	3.411150	0.034112
96.544500	3.411250	0.034113
96.416300	3.411380	0.034114
96.288700	3.411540	0.034115
96.161500	3.411740	0.034117
96.036100	3.411990	0.034120
95.909700	3.412140	0.034121
95.784000	3.412350	0.034124
95.656400	3.412540	0.034125
95.528300	3.412680	0.034127
95.399800	3.412790	0.034128
95.270100	3.412890	0.034129
95.140600	3.412880	0.034129
95.010800	3.412870	0.034129
94.879800	3.412840	0.034128
94.750000	3.412780	0.034128
94.620300	3.412750	0.034128
94.489900	3.412760	0.034128
94.358600	3.412790	0.034128
94.226600	3.412850	0.034129
94.094200	3.412940	0.034129
93.960000	3.413060	0.034131
93.825500	3.413220	0.034132
93.689600	3.413430	0.034134
93.553800	3.413630	0.034136
93.417100	3.413840	0.034138
93.279400	3.414050	0.034141
93.141000	3.414280	0.034143
93.001700	3.414470	0.034145
92.862900	3.414660	0.034147
92.723800	3.414800	0.034148
92.585500	3.414910	0.034149
92.448100	3.414980	0.034150
92.310800	3.415030	0.034150
92.173800	3.415070	0.034151
92.036100	3.415080	0.034151
91.898600	3.415060	0.034151
91.761800	3.415030	0.034150
91.624700	3.415020	0.034150
91.488400	3.415000	0.034150
91.349200	3.414840	0.034148
91.210700	3.414850	0.034149
91.072900	3.414860	0.034149
90.932700	3.414880	0.034149
90.791600	3.414880	0.034149
90.652300	3.415040	0.034150
90.509300	3.415030	0.034150
90.365300	3.415020	0.034150
90.221000	3.415040	0.034150
90.077300	3.415070	0.034151
89.932100	3.415080	0.034151
89.786400	3.415090	0.034151
89.639900	3.415090	0.034151
89.493000	3.415020	0.034150
89.345900	3.415020	0.034150
89.198100	3.415020	0.034150
89.051700	3.414990	0.034150
88.905000	3.414950	0.034150
88.760800	3.414830	0.034148
88.616000	3.414780	0.034148
88.472000	3.414750	0.034148
88.329000	3.414710	0.034147
88.185100	3.414670	0.034147
88.042900	3.414660	0.034147
87.898500	3.414640	0.034146
87.753900	3.414630	0.034146
87.610700	3.414650	0.034147
87.467700	3.414710	0.034147
87.324100	3.414810	0.034148
87.179800	3.414960	0.034150
87.038100	3.415140	0.034151
86.898100	3.415250	0.034153
86.759100	3.415490	0.034155
86.620600	3.415740	0.034157
86.483400	3.415990	0.034160
86.346500	3.416380	0.034164
86.208200	3.416600	0.034166
86.069500	3.416760	0.034168
85.929100	3.416900	0.034169
85.785600	3.417000	0.034170
85.643200	3.417240	0.034172
85.500000	3.417330	0.034173
85.357200	3.417400	0.034174
85.215400	3.417520	0.034175
85.073800	3.417650	0.034177
84.933700	3.417800	0.034178
84.793900	3.417980	0.034180
84.653800	3.418190	0.034182
84.514600	3.418440	0.034184
84.375700	3.418680	0.034187
84.238100	3.418950	0.034190
84.100500	3.419210	0.034192
83.962400	3.419580	0.034196
83.823800	3.419830	0.034198
83.685700	3.420050	0.034201
83.547700	3.420230	0.034202
83.411200	3.420380	0.034204
83.274300	3.420460	0.034205
83.137000	3.420490	0.034205
82.999600	3.420460	0.034205
82.862500	3.420340	0.034203
82.726100	3.420220	0.034202
82.588800	3.420090	0.034201
82.451900	3.419970	0.034200
82.313200	3.419870	0.034199
82.174600	3.419790	0.034198
82.035500	3.419740	0.034197
81.896600	3.419750	0.034198
81.757500	3.419780	0.034198
81.618100	3.419840	0.034198
81.479100	3.419920	0.034199
81.340400	3.419960	0.034200
81.200500	3.420040	0.034200
81.063100	3.420100	0.034201
80.924100	3.420140	0.034201
80.787600	3.420180	0.034202
80.649300	3.420170	0.034202
80.510700	3.420100	0.034201
80.373400	3.420000	0.034200
80.236800	3.419880	0.034199
80.098700	3.419740	0.034197
79.963400	3.419610	0.034196
79.828500	3.419490	0.034195
79.693800	3.419390	0.034194
79.559600	3.419370	0.034194
79.426400	3.419320	0.034193
79.294500	3.419300	0.034193
79.161900	3.419300	0.034193
79.030900	3.419290	0.034193
78.899500	3.419300	0.034193
78.768200	3.419310	0.034193
78.636300	3.419320	0.034193
78.504200	3.419320	0.034193
78.371000	3.419430	0.034194
78.237700	3.419430	0.034194
78.103400	3.419420	0.034194
77.969200	3.419440	0.034194
77.835600	3.419450	0.034195
77.699900	3.419470	0.034195
77.564900	3.419500	0.034195
77.431100	3.419540	0.034195
77.296800	3.419580	0.034196
77.163000	3.419560	0.034196
77.029900	3.419590	0.034196
76.896800	3.419630	0.034196
76.764100	3.419560	0.034196
76.628500	3.419630	0.034196
76.492800	3.419710	0.034197
76.358200	3.419780	0.034198
76.220300	3.419870	0.034199
76.083100	3.419960	0.034200
75.946900	3.419990	0.034200
75.812200	3.420130	0.034201
75.679900	3.420350	0.034204
75.549900	3.420490	0.034205
75.419500	3.420640	0.034206
75.290100	3.420800	0.034208
75.159900	3.420980	0.034210
75.029000	3.421150	0.034212
74.897900	3.421330	0.034213
74.765100	3.421500	0.034215
74.633600	3.421670	0.034217
74.503700	3.421820	0.034218
74.374100	3.421900	0.034219
74.244900	3.422010	0.034220
74.114700	3.422070	0.034221
73.984700	3.422110	0.034221
73.854900	3.422110	0.034221
73.724700	3.422100	0.034221
73.594400	3.422040	0.034220
73.463500	3.422020	0.034220
73.332400	3.422060	0.034221
73.201700	3.422060	0.034221
73.071100	3.422090	0.034221
72.939800	3.422130	0.034221
72.808600	3.422190	0.034222
72.676200	3.422260	0.034223
72.545200	3.422380	0.034224
72.414100	3.422500	0.034225
72.283300	3.422620	0.034226
72.153100	3.422560	0.034226
72.022700	3.422610	0.034226
71.892900	3.422630	0.034226
71.763300	3.422590	0.034226
71.633700	3.422520	0.034225
71.505300	3.422400	0.034224
71.376000	3.422260	0.034223
71.247000	3.422110	0.034221
71.115200	3.421920	0.034219
70.983500	3.421780	0.034218
70.850500	3.421640	0.034216
70.718100	3.421550	0.034216
70.584500	3.421500	0.034215
70.450800	3.421480	0.034215
70.316600	3.421540	0.034215
70.182000	3.421630	0.034216
70.046700	3.421760	0.034218
69.910800	3.421940	0.034219
69.773600	3.422150	0.034222
69.636600	3.422390	0.034224
69.499200	3.422580	0.034226
69.362000	3.422770	0.034228
69.224200	3.422930	0.034229
69.085700	3.423030	0.034230
68.947000	3.423090	0.034231
68.809000	3.423190	0.034232
68.672000	3.423190	0.034232
68.535100	3.423140	0.034231
68.399000	3.423090	0.034231
68.262200	3.423030	0.034230
68.125400	3.422980	0.034230
67.987600	3.422950	0.034230
67.850000	3.422970	0.034230
67.712400	3.423030	0.034230
67.574100	3.423150	0.034232
67.435600	3.423300	0.034233
67.296700	3.423490	0.034235
67.156600	3.423710	0.034237
67.016000	3.423950	0.034240
66.874200	3.424190	0.034242
66.728900	3.424410	0.034244
66.583600	3.424600	0.034246
66.438400	3.424740	0.034247
66.291200	3.424890	0.034249
66.145900	3.424810	0.034248
65.999300	3.424780	0.034248
65.852400	3.424730	0.034247
65.705200	3.424660	0.034247
65.556300	3.424570	0.034246
65.407700	3.424500	0.034245
65.258200	3.424430	0.034244
65.108800	3.424410	0.034244
64.959500	3.424430	0.034244
64.811000	3.424360	0.034244
64.662800	3.424420	0.034244
64.516200	3.424500	0.034245
64.368300	3.424590	0.034246
64.220600	3.424690	0.034247
64.073400	3.424780	0.034248
63.926800	3.424870	0.034249
63.780600	3.424960	0.034250
63.635300	3.425020	0.034250
63.490700	3.425130	0.034251
63.345400	3.425180	0.034252
63.199300	3.425220	0.034252
63.053600	3.425220	0.034252
62.907400	3.425210	0.034252
62.760500	3.425170	0.034252
62.613500	3.425140	0.034251
62.465300	3.425110	0.034251
62.317400	3.425060	0.034251
62.171800	3.425120	0.034251
62.024800	3.425040	0.034250
61.877500	3.424940	0.034249
61.733300	3.424850	0.034249
61.586400	3.424760	0.034248
61.439200	3.424700	0.034247
61.291600	3.424630	0.034246
61.143700	3.424590	0.034246
60.995700	3.424600	0.034246
60.846800	3.424600	0.034246
60.696800	3.424590	0.034246
60.547500	3.424610	0.034246
60.398400	3.424660	0.034247
60.249700	3.424700	0.034247
60.102000	3.424750	0.034248
59.955300	3.424790	0.034248
59.809100	3.424830	0.034248
59.664100	3.424860	0.034249
59.518800	3.424890	0.034249
59.375600	3.424880	0.034249
59.232900	3.424840	0.034248
59.090400	3.424770	0.034248
58.949000	3.424650	0.034247
58.808100	3.424520	0.034245
58.670400	3.424380	0.034244
58.533100	3.424220	0.034242
58.398100	3.424060	0.034241
58.262400	3.423880	0.034239
58.127200	3.423720	0.034237
57.992100	3.423570	0.034236
57.856500	3.423430	0.034234
57.720800	3.423310	0.034233
57.585200	3.423220	0.034232
57.449600	3.423160	0.034232
57.316200	3.423130	0.034231
57.183600	3.423130	0.034231
57.051800	3.423140	0.034231
56.921200	3.423220	0.034232
56.791900	3.423400	0.034234
56.663200	3.423530	0.034235
56.535800	3.423700	0.034237
56.408400	3.423870	0.034239
56.283900	3.424100	0.034241
56.162300	3.424360	0.034244
56.041900	3.424640	0.034246
55.924300	3.424960	0.034250
55.807200	3.425290	0.034253
55.691200	3.425650	0.034257
55.576700	3.426050	0.034261
55.464100	3.426470	0.034265
55.352300	3.426880	0.034269
55.242000	3.427310	0.034273
55.133400	3.427740	0.034277
55.025400	3.428190	0.034282
54.919100	3.428530	0.034285
54.813000	3.428910	0.034289
54.707900	3.429260	0.034293
54.603400	3.429610	0.034296
54.499100	3.429860	0.034299
54.394400	3.430070	0.034301
54.290500	3.430220	0.034302
54.187100	3.430310	0.034303
54.082900	3.430300	0.034303
53.978600	3.430250	0.034303
53.874000	3.430160	0.034302
53.770200	3.430050	0.034301
53.665700	3.429910	0.034299
53.562900	3.429770	0.034298
53.461200	3.429630	0.034296
53.362000	3.429490	0.034295
53.264300	3.429370	0.034294
53.166800	3.429270	0.034293
53.070300	3.429150	0.034292
52.976100	3.429160	0.034292
52.881900	3.429120	0.034291
52.786500	3.429080	0.034291
52.692200	3.429040	0.034290
52.598900	3.429010	0.034290
52.502800	3.428980	0.034290
52.409200	3.428940	0.034289
52.316300	3.428880	0.034289
52.223500	3.428810	0.034288
52.131400	3.428730	0.034287
52.040400	3.428640	0.034286
51.949200	3.428540	0.034285
51.861000	3.428450	0.034285
51.772300	3.428350	0.034284
51.686000	3.428260	0.034283
51.600400	3.428170	0.034282
51.516100	3.428110	0.034281
51.432300	3.428070	0.034281
51.349100	3.428070	0.034281
51.267800	3.428110	0.034281
51.186700	3.428150	0.034282
51.105500	3.428250	0.034283
51.025200	3.428360	0.034284
50.946200	3.428480	0.034285
50.867800	3.428680	0.034287
50.788800	3.428790	0.034288
50.707600	3.428900	0.034289
50.625700	3.428990	0.034290
50.543600	3.429120	0.034291
50.461600	3.429290	0.034293
50.381200	3.429450	0.034295
50.301000	3.429590	0.034296
50.220700	3.429730	0.034297
50.143100	3.429850	0.034299
50.063600	3.429950	0.034300
49.985800	3.429990	0.034300
49.909300	3.430030	0.034300
49.831300	3.430050	0.034301
49.753800	3.430040	0.034300
49.676800	3.430030	0.034300
49.599600	3.430010	0.034300
49.521800	3.429970	0.034300
49.444100	3.429940	0.034299
49.367900	3.429930	0.034299
49.290800	3.429960	0.034300
49.212300	3.429980	0.034300
49.136800	3.430030	0.034300
49.060600	3.430140	0.034301
48.984900	3.430320	0.034303
48.909500	3.430550	0.034306
48.834500	3.430820	0.034308
48.760100	3.431130	0.034311
48.686600	3.431460	0.034315
48.612900	3.431820	0.034318
48.538300	3.432210	0.034322
48.463200	3.432600	0.034326
48.389600	3.432990	0.034330
48.316100	3.433380	0.034334
48.243100	3.433760	0.034338
48.170200	3.434140	0.034341
48.097400	3.434490	0.034345
48.025500	3.434830	0.034348
47.952900	3.435140	0.034351
47.880500	3.435390	0.034354
47.808300	3.435600	0.034356
47.736000	3.435670	0.034357
47.665000	3.435750	0.034358
47.592900	3.435760	0.034358
47.521500	3.435710	0.034357
47.450400	3.435720	0.034357
47.379500	3.435570	0.034356
47.307500	3.435400	0.034354
47.234800	3.435200	0.034352
47.163700	3.434990	0.034350
47.092300	3.434770	0.034348
47.020800	3.434530	0.034345
46.950400	3.434310	0.034343
46.882000	3.434080	0.034341
46.813400	3.433840	0.034338
46.745500	3.433570	0.034336
46.679500	3.433280	0.034333
46.615100	3.432960	0.034330
46.550300	3.432620	0.034326
46.486300	3.432260	0.034323
46.423400	3.431850	0.034319
46.359800	3.431460	0.034315
46.297100	3.431070	0.034311
46.234300	3.430680	0.034307
46.171200	3.430290	0.034303
46.107800	3.429960	0.034300
46.044100	3.429590	0.034296
45.980500	3.429240	0.034292
45.917800	3.428800	0.034288
45.856200	3.428470	0.034285
45.793300	3.428170	0.034282
45.731500	3.427900	0.034279
45.670200	3.427680	0.034277
45.609100	3.427510	0.034275
45.548200	3.427370	0.034274
45.488200	3.427270	0.034273
45.428300	3.427240	0.034272
45.370400	3.427290	0.034273
45.313500	3.427430	0.034274
45.258300	3.427660	0.034277
45.204400	3.427950	0.034280
45.149600	3.428310	0.034283
45.096800	3.428740	0.034287
45.044900	3.429200	0.034292
44.990100	3.429690	0.034297
44.938900	3.430220	0.034302
44.886200	3.430750	0.034308
44.831700	3.431280	0.034313
44.779600	3.431880	0.034319
44.726700	3.432410	0.034324
44.675000	3.432910	0.034329
44.623300	3.433390	0.034334
44.572800	3.433860	0.034339
44.523100	3.434280	0.034343
44.474100	3.434660	0.034347
44.425500	3.434960	0.034350
44.378000	3.435190	0.034352
44.330100	3.435350	0.034354
44.282200	3.435440	0.034354
44.234200	3.435470	0.034355
44.186900	3.435360	0.034354
44.139200	3.435300	0.034353
44.092000	3.435190	0.034352
44.044500	3.435040	0.034350
43.996800	3.434870	0.034349
43.949500	3.434650	0.034347
43.903500	3.434430	0.034344
43.855000	3.434210	0.034342
43.806800	3.433970	0.034340
43.759700	3.433750	0.034338
43.712600	3.433540	0.034335
43.666200	3.433330	0.034333
43.622400	3.433140	0.034331
43.579000	3.432950	0.034330
43.536000	3.432770	0.034328
43.495600	3.432520	0.034325
43.453100	3.432340	0.034323
43.410700	3.432190	0.034322
43.369400	3.432050	0.034321
43.328300	3.431950	0.034320
43.287200	3.431820	0.034318
43.247200	3.431720	0.034317
43.207600	3.431600	0.034316
43.168500	3.431430	0.034314
43.128300	3.431210	0.034312
43.090400	3.430950	0.034310
43.053000	3.430660	0.034307
43.015400	3.430360	0.034304
42.977200	3.430020	0.034300
42.940300	3.429680	0.034297
42.903400	3.429330	0.034293
42.865900	3.429020	0.034290
42.828300	3.428740	0.034287
42.791800	3.428490	0.034285
42.757500	3.428270	0.034283
42.722400	3.428080	0.034281
42.689300	3.427950	0.034280
42.656400	3.427870	0.034279
42.624100	3.427840	0.034278
42.593900	3.427880	0.034279
42.563500	3.427970	0.034280
42.534200	3.428100	0.034281
42.504000	3.428280	0.034283
42.473800	3.428530	0.034285
42.441300	3.428810	0.034288
42.410900	3.428970	0.034290
42.380900	3.429220	0.034292
42.351300	3.429430	0.034294
42.321600	3.429600	0.034296
42.291500	3.429720	0.034297
42.261100	3.429790	0.034298
42.232200	3.429810	0.034298
42.201200	3.429760	0.034298
42.170900	3.429680	0.034297
42.140100	3.429570	0.034296
42.108600	3.429470	0.034295
42.077400	3.429370	0.034294
42.045800	3.429270	0.034293
42.014200	3.429200	0.034292
41.984200	3.429150	0.034292
41.953400	3.429120	0.034291
41.924500	3.429190	0.034292
41.897000	3.429220	0.034292
41.868600	3.429280	0.034293
41.841200	3.429170	0.034292
41.813800	3.429390	0.034294
41.786900	3.429620	0.034296
41.759900	3.429910	0.034299
41.731000	3.430340	0.034303
41.703600	3.430680	0.034307
41.676200	3.431040	0.034310
41.649600	3.431400	0.034314
41.623200	3.431750	0.034318
41.597300	3.432060	0.034321
41.570200	3.432350	0.034324
41.543300	3.432600	0.034326
41.515900	3.432800	0.034328
41.487100	3.432930	0.034329
41.458500	3.432980	0.034330
41.429100	3.432940	0.034329
41.397900	3.432830	0.034328
41.367700	3.432660	0.034327
41.338000	3.432400	0.034324
41.308700	3.432070	0.034321
41.277500	3.431700	0.034317
41.246600	3.431280	0.034313
41.215700	3.430840	0.034308
41.182200	3.430390	0.034304
41.150100	3.429840	0.034298
41.118300	3.429350	0.034294
41.085000	3.428870	0.034289
41.054600	3.428390	0.034284
41.024500	3.427940	0.034279
40.995400	3.427550	0.034276
40.967700	3.427250	0.034273
40.938400	3.427030	0.034270
40.910900	3.426910	0.034269
40.882800	3.426850	0.034269
40.856400	3.426910	0.034269
40.831100	3.427040	0.034270
40.804300	3.427240	0.034272
40.778100	3.427500	0.034275
40.752600	3.427790	0.034278
40.727200	3.428110	0.034281
40.700900	3.428460	0.034285
40.674100	3.428810	0.034288
40.647400	3.429170	0.034292
40.620000	3.429510	0.034295
40.592600	3.429870	0.034299
40.563100	3.430200	0.034302
40.534000	3.430520	0.034305
40.503300	3.430830	0.034308
40.473100	3.431120	0.034311
40.442500	3.431410	0.034314
40.411400	3.431680	0.034317
40.380800	3.432030	0.034320
40.349000	3.432290	0.034323
40.317500	3.432540	0.034325
40.288200	3.432860	0.034329
40.259300	3.433020	0.034330
40.229900	3.433200	0.034332
40.202700	3.433360	0.034334
40.173400	3.433530	0.034335
40.145500	3.433710	0.034337
40.117900	3.433910	0.034339
40.090800	3.434130	0.034341
40.061900	3.434360	0.034344
40.035100	3.434600	0.034346
40.008300	3.434840	0.034348
39.981600	3.435080	0.034351
39.955800	3.435280	0.034353
39.930300	3.435420	0.034354
39.904500	3.435500	0.034355
39.878500	3.435510	0.034355
39.853600	3.435460	0.034355
39.828100	3.435360	0.034354
39.801900	3.435170	0.034352
39.774600	3.434900	0.034349
39.748200	3.434570	0.034346
39.721800	3.434160	0.034342
39.695000	3.433690	0.034337
39.668100	3.433060	0.034331
39.640500	3.432520	0.034325
39.613700	3.431910	0.034319
39.584800	3.431290	0.034313
39.556200	3.430630	0.034306
39.526500	3.430020	0.034300
39.495600	3.429430	0.034294
39.465000	3.428860	0.034289
39.435300	3.428330	0.034283
39.403100	3.427830	0.034278
39.372500	3.427380	0.034274
39.342900	3.427000	0.034270
39.313800	3.426680	0.034267
39.284800	3.426440	0.034264
39.258500	3.426270	0.034263
39.231400	3.426160	0.034262
39.204800	3.426130	0.034261
39.178500	3.426160	0.034262
39.153500	3.426240	0.034262
39.128000	3.426360	0.034264
39.102700	3.426440	0.034264
39.077600	3.426620	0.034266
39.052100	3.426810	0.034268
39.026400	3.427190	0.034272
39.000400	3.427280	0.034273
38.974800	3.427370	0.034274
38.949500	3.427400	0.034274
38.923500	3.427410	0.034274
38.896600	3.427430	0.034274
38.871900	3.427450	0.034275
38.845200	3.427480	0.034275
38.819400	3.427490	0.034275
38.792600	3.427510	0.034275
38.766300	3.427530	0.034275
38.740400	3.427540	0.034275
38.714900	3.427570	0.034276
38.689600	3.427590	0.034276
38.664400	3.427550	0.034276
38.640400	3.427600	0.034276
38.617300	3.427660	0.034277
38.593900	3.427740	0.034277
38.571200	3.427840	0.034278
38.549100	3.427970	0.034280
38.525200	3.428130	0.034281
38.502900	3.428330	0.034283
38.480600	3.428560	0.034286
38.458100	3.428830	0.034288
38.436600	3.429110	0.034291
38.414800	3.429450	0.034295
38.392400	3.429780	0.034298
38.371400	3.430120	0.034301
38.351200	3.430430	0.034304
38.328500	3.430720	0.034307
38.307700	3.430930	0.034309
38.285500	3.431110	0.034311
38.262200	3.431250	0.034313
38.240300	3.431420	0.034314
38.219200	3.431520	0.034315
38.198700	3.431590	0.034316
38.178600	3.431660	0.034317
38.161100	3.431690	0.034317
38.142800	3.431700	0.034317
38.124500	3.431690	0.034317
38.106700	3.431670	0.034317
38.089600	3.431620	0.034316
38.072600	3.431570	0.034316
38.054800	3.431500	0.034315
38.037700	3.431410	0.034314
38.020700	3.431340	0.034313
38.003100	3.431260	0.034313
37.986000	3.431190	0.034312
37.968600	3.431140	0.034311
37.951200	3.431100	0.034311
37.933800	3.431080	0.034311
37.916000	3.431080	0.034311
37.898400	3.431100	0.034311
37.880900	3.431240	0.034312
37.863600	3.431180	0.034312
37.847500	3.431240	0.034312
37.830400	3.431270	0.034313
37.814800	3.431290	0.034313
37.798700	3.431270	0.034313
37.781800	3.431210	0.034312
37.767400	3.431110	0.034311
37.752600	3.430960	0.034310
37.736300	3.430770	0.034308
37.720100	3.430530	0.034305
37.703300	3.430250	0.034303
37.688200	3.429940	0.034299
37.672900	3.429620	0.034296
37.658200	3.429300	0.034293
37.643800	3.428980	0.034290
37.629300	3.428680	0.034287
37.615100	3.428400	0.034284
37.600700	3.428130	0.034281
37.586800	3.427900	0.034279
37.573100	3.427680	0.034277
37.560600	3.427510	0.034275
37.547800	3.427370	0.034274
37.534900	3.427270	0.034273
37.521200	3.427260	0.034273
37.507200	3.427230	0.034272
37.492600	3.427290	0.034273
37.478300	3.427380	0.034274
37.464500	3.427540	0.034275
37.450900	3.427710	0.034277
37.437800	3.427900	0.034279
37.424200	3.428110	0.034281
37.410800	3.428320	0.034283
37.396800	3.428550	0.034286
37.383600	3.428770	0.034288
37.371200	3.428980	0.034290
37.359100	3.429180	0.034292
37.347400	3.429350	0.034294
37.335800	3.429490	0.034295
37.324800	3.429610	0.034296
37.313700	3.429700	0.034297
37.302200	3.429750	0.034298
37.292600	3.429780	0.034298
37.281500	3.429800	0.034298
37.272400	3.429810	0.034298
37.264700	3.429800	0.034298
37.255900	3.429790	0.034298
37.247300	3.429780	0.034298
37.238800	3.429760	0.034298
37.230900	3.429700	0.034297
37.222700	3.429750	0.034298
37.215500	3.429790	0.034298
37.206800	3.429850	0.034299
37.199900	3.429890	0.034299
37.190800	3.429920	0.034299
37.181800	3.429970	0.034300
37.171500	3.430050	0.034301
37.160900	3.430130	0.034301
37.150400	3.430240	0.034302
37.137900	3.430360	0.034304
37.125000	3.430480	0.034305
37.111400	3.430670	0.034307
37.096600	3.430790	0.034308
37.080600	3.430890	0.034309
37.064100	3.430990	0.034310
37.048200	3.431060	0.034311
37.031000	3.431110	0.034311
37.013500	3.431130	0.034311
36.997000	3.431120	0.034311
36.980500	3.431070	0.034311
36.964200	3.430990	0.034310
36.947900	3.430900	0.034309
36.931400	3.430780	0.034308
36.915700	3.430660	0.034307
36.899600	3.430460	0.034305
36.884700	3.430290	0.034303
36.869600	3.430110	0.034301
36.854600	3.429960	0.034300
36.840900	3.429870	0.034299
36.826700	3.429770	0.034298
36.813100	3.429610	0.034296
36.799900	3.429490	0.034295
36.785200	3.429380	0.034294
36.773100	3.429290	0.034293
36.762600	3.429230	0.034292
36.752000	3.429200	0.034292
36.742300	3.429200	0.034292
36.732500	3.429230	0.034292
36.723300	3.429280	0.034293
36.714500	3.429340	0.034293
36.705300	3.429420	0.034294
36.696400	3.429500	0.034295
36.686600	3.429580	0.034296
36.679100	3.429650	0.034297
36.671200	3.429700	0.034297
36.663500	3.429710	0.034297
36.654600	3.429700	0.034297
36.646800	3.429650	0.034297
36.640300	3.429570	0.034296
36.634300	3.429460	0.034295
36.629500	3.429200	0.034292
36.625800	3.429030	0.034290
36.622300	3.428840	0.034288
36.619500	3.428640	0.034286
36.616800	3.428450	0.034285
36.614100	3.428290	0.034283
36.612300	3.428130	0.034281
36.610900	3.427980	0.034280
36.609400	3.427850	0.034279
36.607500	3.427720	0.034277
36.605600	3.427610	0.034276
36.602100	3.427540	0.034275
36.597800	3.427500	0.034275
36.595600	3.427500	0.034275
36.591000	3.427530	0.034275
36.587000	3.427620	0.034276
36.582600	3.427750	0.034278
36.578700	3.427900	0.034279
36.573500	3.428110	0.034281
36.568700	3.428330	0.034283
36.563200	3.428580	0.034286
36.558500	3.428810	0.034288
36.553500	3.429050	0.034291
36.547800	3.429270	0.034293
36.540800	3.429540	0.034295
36.533200	3.429700	0.034297
36.526100	3.429800	0.034298
36.519300	3.429810	0.034298
36.512100	3.429860	0.034299
36.506800	3.429850	0.034299
36.501900	3.429850	0.034299
36.497100	3.429820	0.034298
36.492100	3.429780	0.034298
36.487300	3.429760	0.034298
36.483500	3.429710	0.034297
36.479600	3.429680	0.034297
36.476300	3.429650	0.034297
36.472600	3.429650	0.034297
36.469900	3.429660	0.034297
36.467600	3.429710	0.034297
36.465800	3.429800	0.034298
36.465300	3.429890	0.034299
36.464400	3.430010	0.034300
36.463700	3.430140	0.034301
36.463400	3.430280	0.034303
36.463400	3.430420	0.034304
36.463300	3.430570	0.034306
36.463600	3.430730	0.034307
36.463500	3.430880	0.034309
36.463800	3.431070	0.034311
36.463300	3.431170	0.034312
36.463100	3.431240	0.034312
36.462400	3.431280	0.034313
36.461500	3.431290	0.034313
36.459500	3.431220	0.034312
36.458300	3.431130	0.034311
36.457500	3.431020	0.034310
36.456700	3.430900	0.034309
36.456100	3.430790	0.034308
36.455000	3.430680	0.034307
36.454800	3.430550	0.034306
36.453800	3.430430	0.034304
36.452800	3.430300	0.034303
36.451200	3.430160	0.034302
36.448600	3.430020	0.034300
36.446800	3.429900	0.034299
36.444100	3.429770	0.034298
36.442900	3.429670	0.034297
36.440000	3.429580	0.034296
36.437800	3.429530	0.034295
36.435200	3.429490	0.034295
36.432800	3.429470	0.034295
36.429300	3.429460	0.034295
36.424500	3.429450	0.034295
36.420000	3.429530	0.034295
36.415000	3.429560	0.034296
36.409200	3.429590	0.034296
36.403300	3.429610	0.034296
36.395500	3.429560	0.034296
36.389100	3.429510	0.034295
36.382100	3.429450	0.034295
36.375100	3.429390	0.034294
36.367600	3.429300	0.034293
36.359500	3.429180	0.034292
36.350800	3.429040	0.034290
36.341000	3.428880	0.034289
36.332800	3.428680	0.034287
36.325200	3.428460	0.034285
36.315500	3.428240	0.034282
36.308500	3.428020	0.034280
36.302100	3.427790	0.034278
36.296800	3.427560	0.034276
36.290400	3.427330	0.034273
36.286700	3.427110	0.034271
36.281500	3.426890	0.034269
36.277200	3.426700	0.034267
36.273400	3.426530	0.034265
36.269900	3.426360	0.034264
36.267700	3.426220	0.034262
36.266000	3.426080	0.034261
36.265700	3.425970	0.034260
36.265000	3.425860	0.034259
36.265400	3.425750	0.034258
36.266100	3.425650	0.034257
36.266500	3.425550	0.034256
36.266400	3.425430	0.034254
36.266700	3.425320	0.034253
36.268100	3.425230	0.034252
36.269300	3.425160	0.034252
36.271400	3.425110	0.034251
36.274100	3.425090	0.034251
36.278100	3.425110	0.034251
36.282900	3.425190	0.034252
36.289100	3.425310	0.034253
36.296300	3.425490	0.034255
36.304100	3.425710	0.034257
36.314400	3.425980	0.034260
36.325100	3.426290	0.034263
36.337800	3.426630	0.034266
36.351200	3.427010	0.034270
36.365500	3.427410	0.034274
36.379900	3.427840	0.034278
36.396700	3.428280	0.034283
36.415900	3.428690	0.034287
36.435500	3.429110	0.034291
36.457000	3.429490	0.034295
36.480100	3.429860	0.034299
36.504600	3.430240	0.034302
36.530900	3.430540	0.034305
36.559100	3.430820	0.034308
36.586700	3.431030	0.034310
36.617900	3.431240	0.034312
36.650100	3.431410	0.034314
36.684200	3.431560	0.034316
36.720200	3.431700	0.034317
36.756500	3.431830	0.034318
36.793600	3.431940	0.034319
36.832000	3.432020	0.034320
36.872100	3.432110	0.034321
36.914900	3.432170	0.034322
36.958900	3.432210	0.034322
37.005400	3.432250	0.034323
37.052700	3.432270	0.034323
37.103700	3.432310	0.034323
37.155000	3.432340	0.034323
37.208400	3.432350	0.034324
37.264600	3.432360	0.034324
37.323400	3.432510	0.034325
37.382600	3.432490	0.034325
37.443200	3.432440	0.034324
37.507300	3.432370	0.034324
37.572300	3.432230	0.034322
37.639400	3.432130	0.034321
37.708800	3.432020	0.034320
37.778400	3.431930	0.034319
37.849200	3.431810	0.034318
37.921600	3.431670	0.034317
37.994900	3.431520	0.034315
38.069500	3.431330	0.034313
38.145000	3.431120	0.034311
38.221000	3.430920	0.034309
38.297800	3.430720	0.034307
38.376500	3.430520	0.034305
38.455700	3.430330	0.034303
38.535800	3.430140	0.034301
38.616800	3.429920	0.034299
38.698200	3.429690	0.034297
38.782100	3.429430	0.034294
38.865000	3.429150	0.034292
38.949400	3.428780	0.034288
39.033500	3.428460	0.034285
39.119000	3.428130	0.034281
39.205300	3.427800	0.034278
39.292100	3.427450	0.034275
39.382100	3.427110	0.034271
39.471900	3.426770	0.034268
39.562800	3.426440	0.034264
39.655400	3.426120	0.034261
39.749100	3.425830	0.034258
39.843400	3.425560	0.034256
39.940100	3.425330	0.034253
40.036600	3.425140	0.034251
40.133800	3.425030	0.034250
40.231400	3.424980	0.034250
40.328200	3.424990	0.034250
40.426500	3.425040	0.034250
40.524700	3.425140	0.034251
40.623700	3.425290	0.034253
40.723000	3.425460	0.034255
40.821700	3.425660	0.034257
40.921400	3.425970	0.034260
41.020000	3.426240	0.034262
41.119000	3.426530	0.034265
41.216700	3.426880	0.034269
41.315200	3.427210	0.034272
41.414200	3.427550	0.034276
41.514600	3.427890	0.034279
41.614500	3.428230	0.034282
41.712400	3.428550	0.034286
41.811200	3.428870	0.034289
41.910300	3.429180	0.034292
42.009300	3.429470	0.034295
42.108600	3.429760	0.034298
42.206400	3.430030	0.034300
42.303900	3.430280	0.034303
42.401700	3.430520	0.034305
42.496100	3.430730	0.034307
42.589800	3.430920	0.034309
42.681100	3.431070	0.034311
42.771700	3.431200	0.034312
42.861800	3.431280	0.034313
42.953100	3.431310	0.034313
43.043800	3.431240	0.034312
43.134700	3.431110	0.034311
43.223600	3.430870	0.034309
43.311400	3.430550	0.034306
43.398800	3.430140	0.034301
43.485800	3.429640	0.034296
43.570000	3.429070	0.034291
43.656500	3.428440	0.034284
43.740100	3.427790	0.034278
43.823900	3.427070	0.034271
43.909400	3.426400	0.034264
43.993500	3.425820	0.034258
44.077500	3.425340	0.034253
44.159200	3.424900	0.034249
44.242600	3.424600	0.034246
44.324800	3.424400	0.034244
44.405700	3.424280	0.034243
44.486400	3.424220	0.034242
44.567200	3.424220	0.034242
44.646500	3.424280	0.034243
44.726300	3.424420	0.034244
44.806800	3.424600	0.034246
44.887200	3.424820	0.034248
44.968500	3.425050	0.034251
45.050200	3.425300	0.034253
45.130400	3.425560	0.034256
45.212000	3.425810	0.034258
45.293200	3.426020	0.034260
45.374400	3.426260	0.034263
45.455400	3.426480	0.034265
45.536700	3.426670	0.034267
45.619400	3.426810	0.034268
45.702700	3.426930	0.034269
45.787000	3.427020	0.034270
45.871000	3.427080	0.034271
45.956400	3.426950	0.034270
46.042500	3.426940	0.034269
46.127300	3.426910	0.034269
46.214000	3.426860	0.034269
46.301200	3.426800	0.034268
46.387000	3.426680	0.034267
46.474100	3.426540	0.034265
46.561400	3.426420	0.034264
46.649700	3.426300	0.034263
46.739500	3.426200	0.034262
46.829600	3.426090	0.034261
46.920200	3.426000	0.034260
47.012900	3.425920	0.034259
47.105100	3.425840	0.034258
47.198400	3.425770	0.034258
47.292400	3.425720	0.034257
47.386500	3.425690	0.034257
47.481400	3.425650	0.034257
47.576600	3.425640	0.034256
47.671300	3.425640	0.034256
47.766400	3.425650	0.034257
47.862800	3.425670	0.034257
47.958800	3.425730	0.034257
48.055100	3.425730	0.034257
48.150900	3.425720	0.034257
48.246800	3.425700	0.034257
48.343700	3.425710	0.034257
48.441100	3.425700	0.034257
48.537100	3.425710	0.034257
48.633700	3.425730	0.034257
48.731600	3.425780	0.034258
48.829500	3.425860	0.034259
48.928700	3.425960	0.034260
49.029000	3.426090	0.034261
49.130400	3.426220	0.034262
49.232700	3.426420	0.034264
49.336500	3.426550	0.034266
49.440300	3.426700	0.034267
49.544900	3.426860	0.034269
49.649600	3.427040	0.034270
49.754200	3.427210	0.034272
49.858500	3.427380	0.034274
49.963200	3.427550	0.034276
50.066600	3.427610	0.034276
50.170200	3.427710	0.034277
50.274900	3.427780	0.034278
50.380200	3.427780	0.034278
50.483900	3.427770	0.034278
50.590800	3.427750	0.034278
50.695500	3.427700	0.034277
50.795900	3.427640	0.034276
50.897200	3.427580	0.034276
50.998600	3.427500	0.034275
51.098600	3.427430	0.034274
51.198800	3.427350	0.034274
51.297900	3.427260	0.034273
51.397500	3.427170	0.034272
51.498800	3.427070	0.034271
51.600200	3.426990	0.034270
51.702600	3.426920	0.034269
51.804500	3.426850	0.034269
51.908200	3.426820	0.034268
52.012800	3.426810	0.034268
52.116200	3.426820	0.034268
52.221400	3.426860	0.034269
52.327200	3.426940	0.034269
52.431900	3.427030	0.034270
52.538100	3.427180	0.034272
52.644500	3.427410	0.034274
52.752700	3.427590	0.034276
52.860500	3.427800	0.034278
52.969400	3.428050	0.034281
53.079400	3.428340	0.034283
53.189300	3.428610	0.034286
53.300700	3.428950	0.034290
53.411800	3.429220	0.034292
53.523800	3.429420	0.034294
53.635700	3.429520	0.034295
53.749700	3.429590	0.034296
53.862500	3.429520	0.034295
53.977000	3.429370	0.034294
54.090300	3.429140	0.034291
54.204400	3.428860	0.034289
54.316700	3.428530	0.034285
54.427400	3.428110	0.034281
54.535000	3.427650	0.034277
54.642400	3.427130	0.034271
54.749300	3.426550	0.034266
54.855700	3.425960	0.034260
54.961700	3.425330	0.034253
55.067800	3.424670	0.034247
55.174400	3.424030	0.034240
55.281600	3.423450	0.034235
55.389000	3.422890	0.034229
55.497500	3.422410	0.034224
55.607000	3.422020	0.034220
55.715100	3.421740	0.034217
55.825200	3.421560	0.034216
55.935800	3.421470	0.034215
56.046900	3.421520	0.034215
56.158000	3.421600	0.034216
56.269100	3.421760	0.034218
56.380000	3.422020	0.034220
56.492800	3.422290	0.034223
56.605700	3.422760	0.034228
56.716600	3.423240	0.034232
56.829000	3.423760	0.034238
56.941600	3.424280	0.034243
57.054400	3.424770	0.034248
57.168800	3.425240	0.034252
57.282700	3.425700	0.034257
57.397300	3.426120	0.034261
57.511700	3.426510	0.034265
57.626400	3.426870	0.034269
57.741000	3.427180	0.034272
57.855700	3.427440	0.034274
57.970400	3.427660	0.034277
58.085100	3.427850	0.034279
58.201200	3.428010	0.034280
58.317900	3.428150	0.034282
58.434400	3.428270	0.034283
58.550700	3.428360	0.034284
58.666700	3.428440	0.034284
58.782500	3.428500	0.034285
58.899700	3.428550	0.034286
59.018500	3.428580	0.034286
59.139100	3.428580	0.034286
59.259200	3.428560	0.034286
59.381000	3.428500	0.034285
59.501100	3.428390	0.034284
59.623300	3.428120	0.034281
59.745200	3.427900	0.034279
59.866000	3.427610	0.034276
59.986600	3.427270	0.034273
60.107700	3.426870	0.034269
60.229000	3.426400	0.034264
60.348800	3.425980	0.034260
60.468500	3.425530	0.034255
60.589600	3.425080	0.034251
60.710700	3.424630	0.034246
60.830800	3.424220	0.034242
60.951800	3.423830	0.034238
61.073100	3.423480	0.034235
61.193700	3.423180	0.034232
61.313800	3.422930	0.034229
61.433700	3.422740	0.034227
61.552000	3.422610	0.034226
61.668500	3.422530	0.034225
61.784900	3.422490	0.034225
61.899600	3.422520	0.034225
62.014500	3.422600	0.034226
62.128200	3.422730	0.034227
62.241900	3.422890	0.034229
62.353500	3.423090	0.034231
62.465600	3.423320	0.034233
62.576500	3.423580	0.034236
62.688700	3.423860	0.034239
62.800600	3.424180	0.034242
62.914100	3.424520	0.034245
63.030200	3.424850	0.034249
63.149400	3.425170	0.034252
63.271300	3.425520	0.034255
63.393300	3.425800	0.034258
63.515700	3.426070	0.034261
63.640300	3.426340	0.034263
63.765600	3.426570	0.034266
63.891800	3.426780	0.034268
64.018900	3.426950	0.034270
64.146300	3.427030	0.034270
64.273800	3.427150	0.034272
64.401600	3.427210	0.034272
64.531000	3.427210	0.034272
64.659800	3.427150	0.034272
64.787200	3.427050	0.034271
64.916300	3.426890	0.034269
65.045600	3.426700	0.034267
65.175500	3.426480	0.034265
65.305800	3.426240	0.034262
65.437100	3.425980	0.034260
65.567900	3.425710	0.034257
65.700200	3.425440	0.034254
65.832900	3.425160	0.034252
65.961500	3.424870	0.034249
66.090400	3.424590	0.034246
66.219900	3.424330	0.034243
66.347300	3.424090	0.034241
66.474600	3.423870	0.034239
66.604000	3.423700	0.034237
66.733200	3.423580	0.034236
66.862900	3.423540	0.034235
66.992900	3.423590	0.034236
67.123700	3.423690	0.034237
67.256000	3.423810	0.034238
67.389200	3.424010	0.034240
67.522100	3.424230	0.034242
67.655900	3.424490	0.034245
67.791000	3.424720	0.034247
67.926600	3.424960	0.034250
68.062100	3.425180	0.034252
68.197100	3.425310	0.034253
68.333100	3.425450	0.034255
68.470300	3.425550	0.034256
68.607800	3.425580	0.034256
68.746200	3.425630	0.034256
68.886100	3.425540	0.034255
69.026800	3.425430	0.034254
69.168600	3.425290	0.034253
69.311000	3.425150	0.034252
69.454200	3.424990	0.034250
69.596600	3.424830	0.034248
69.738600	3.424670	0.034247
69.881400	3.424490	0.034245
70.024100	3.424310	0.034243
70.167300	3.424130	0.034241
70.309200	3.423950	0.034240
70.451300	3.423770	0.034238
70.593100	3.423600	0.034236
70.734800	3.423420	0.034234
70.876700	3.423250	0.034233
71.018500	3.423070	0.034231
71.161000	3.422890	0.034229
71.301800	3.422730	0.034227
71.443600	3.422520	0.034225
71.583400	3.422400	0.034224
71.725400	3.422260	0.034223
71.866900	3.422170	0.034222
72.008900	3.422130	0.034221
72.151500	3.422130	0.034221
72.293400	3.422190	0.034222
72.436400	3.422310	0.034223
72.580200	3.422570	0.034226
72.724400	3.422780	0.034228
72.868500	3.423030	0.034230
73.011500	3.423320	0.034233
73.154100	3.423630	0.034236
73.296600	3.423910	0.034239
73.437700	3.424200	0.034242
73.579100	3.424460	0.034245
73.721200	3.424700	0.034247
73.861600	3.424890	0.034249
74.002200	3.425050	0.034251
74.141500	3.425180	0.034252
74.281200	3.425260	0.034253
74.420000	3.425280	0.034253
74.558900	3.425260	0.034253
74.698000	3.425190	0.034252
74.837200	3.425080	0.034251
74.976000	3.424910	0.034249
75.115300	3.424710	0.034247
75.254500	3.424450	0.034245
75.394100	3.424140	0.034241
75.533500	3.423790	0.034238
75.673600	3.423620	0.034236
75.812600	3.423190	0.034232
75.951700	3.422760	0.034228
76.090800	3.422320	0.034223
76.228400	3.421890	0.034219
76.369500	3.421430	0.034214
76.510200	3.420990	0.034210
76.647900	3.420560	0.034206
76.788200	3.420160	0.034202
76.927600	3.419710	0.034197
77.064500	3.419330	0.034193
77.199500	3.418940	0.034189
77.334100	3.418560	0.034186
77.469700	3.418210	0.034182
77.605100	3.417920	0.034179
77.741700	3.417680	0.034177
77.878300	3.417520	0.034175
78.015600	3.417450	0.034175
78.151500	3.417450	0.034175
78.287500	3.417530	0.034175
78.423000	3.417680	0.034177
78.558800	3.417910	0.034179
78.695200	3.418200	0.034182
78.831100	3.418550	0.034186
78.966400	3.418950	0.034190
79.102500	3.419390	0.034194
79.238100	3.419880	0.034199
79.373800	3.420400	0.034204
79.508200	3.420950	0.034210
79.642700	3.421520	0.034215
79.776700	3.422100	0.034221
79.911100	3.422640	0.034226
80.046900	3.423230	0.034232
80.183100	3.423830	0.034238
80.319000	3.424440	0.034244
80.457900	3.424990	0.034250
80.595000	3.425550	0.034256
80.732700	3.426070	0.034261
80.873300	3.426520	0.034265
81.014200	3.426910	0.034269
81.155000	3.427260	0.034273
81.297700	3.427470	0.034275
81.439700	3.427600	0.034276
81.583000	3.427620	0.034276
81.729700	3.427560	0.034276
81.876800	3.427410	0.034274
82.026300	3.427160	0.034272
82.174100	3.426820	0.034268
82.321800	3.426420	0.034264
82.469600	3.425970	0.034260
82.617500	3.425460	0.034255
82.765500	3.424910	0.034249
82.913300	3.424320	0.034243
83.060500	3.423690	0.034237
83.208300	3.423050	0.034231
83.357200	3.422390	0.034224
83.506900	3.421740	0.034217
83.656700	3.421110	0.034211
83.807100	3.420490	0.034205
83.957400	3.419910	0.034199
84.107500	3.419360	0.034194
84.257200	3.418850	0.034189
84.407900	3.418450	0.034185
84.557400	3.418150	0.034182
84.707400	3.417980	0.034180
84.855800	3.417950	0.034180
85.003900	3.418020	0.034180
85.152500	3.418200	0.034182
85.300000	3.418510	0.034185
85.447300	3.418900	0.034189
85.593600	3.419420	0.034194
85.741800	3.419940	0.034199
85.889300	3.420510	0.034205
86.037400	3.421080	0.034211
86.185000	3.421620	0.034216
86.332700	3.422120	0.034221
86.480600	3.422570	0.034226
86.628500	3.422970	0.034230
86.776100	3.423340	0.034233
86.924200	3.423650	0.034237
87.072800	3.423940	0.034239
87.222000	3.424190	0.034242
87.372200	3.424410	0.034244
87.522100	3.424610	0.034246
87.673800	3.424770	0.034248
87.825700	3.424910	0.034249
87.979100	3.425010	0.034250
88.133300	3.425080	0.034251
88.285100	3.425090	0.034251
88.436100	3.425050	0.034251
88.586300	3.424960	0.034250
88.736700	3.424690	0.034247
88.887500	3.424550	0.034246
89.038000	3.424380	0.034244
89.188000	3.424200	0.034242
89.337600	3.424010	0.034240
89.486900	3.423840	0.034238
89.635900	3.423660	0.034237
89.785000	3.423480	0.034235
89.934900	3.423310	0.034233
90.084500	3.422930	0.034229
90.233600	3.422770	0.034228
90.382200	3.422590	0.034226
90.531300	3.422390	0.034224
90.680900	3.422170	0.034222
90.830200	3.421950	0.034220
90.978800	3.421710	0.034217
91.126700	3.421460	0.034215
91.274600	3.421200	0.034212
91.422100	3.420960	0.034210
91.566400	3.420740	0.034207
91.710500	3.420580	0.034206
91.854300	3.420470	0.034205
91.995900	3.420400	0.034204
92.137600	3.420370	0.034204
92.278100	3.420370	0.034204
92.416500	3.420380	0.034204
92.554700	3.420420	0.034204
92.690800	3.420470	0.034205
92.826400	3.420530	0.034205
92.961000	3.420600	0.034206
93.096400	3.420620	0.034206
93.231800	3.420710	0.034207
93.367900	3.420830	0.034208
93.504400	3.420930	0.034209
93.640100	3.421030	0.034210
93.776000	3.421130	0.034211
93.912400	3.421210	0.034212
94.048300	3.421280	0.034213
94.184600	3.421350	0.034214
94.319800	3.421440	0.034214
94.452400	3.421560	0.034216
94.583600	3.421640	0.034216
94.713900	3.421690	0.034217
94.844700	3.421720	0.034217
94.974900	3.421710	0.034217
95.105300	3.421600	0.034216
95.232600	3.421400	0.034214
95.362500	3.421120	0.034211
95.490800	3.420770	0.034208
95.620300	3.420340	0.034203
95.752800	3.419840	0.034198
95.884100	3.419270	0.034193
96.015000	3.418650	0.034187
96.148400	3.418000	0.034180
96.282600	3.417350	0.034174
96.415400	3.416740	0.034167
96.548200	3.416190	0.034162
96.680100	3.415690	0.034157
96.811700	3.415260	0.034153
96.942000	3.414640	0.034146
97.071500	3.414390	0.034144
97.201600	3.414240	0.034142
97.332100	3.414230	0.034142
97.461900	3.414370	0.034144
97.592500	3.414680	0.034147
97.723200	3.415090	0.034151
97.854500	3.415590	0.034156
97.986500	3.416180	0.034162
98.116100	3.416830	0.034168
98.248400	3.417520	0.034175
98.382000	3.418240	0.034182
98.515900	3.418900	0.034189
98.651300	3.419500	0.034195
98.788600	3.419980	0.034200
98.926000	3.420330	0.034203
99.062900	3.420570	0.034206
99.199200	3.420690	0.034207
99.335500	3.420700	0.034207
99.472600	3.420600	0.034206
99.609800	3.420400	0.034204
99.748600	3.420110	0.034201
99.886900	3.419770	0.034198
100.024000	3.419380	0.034194
100.162000	3.418980	0.034190
100.299000	3.418560	0.034186
100.437000	3.418110	0.034181
100.577000	3.417670	0.034177
100.715000	3.417230	0.034172
100.853000	3.416800	0.034168
100.991000	3.416210	0.034162
101.131000	3.415800	0.034158
101.271000	3.415450	0.034155
101.411000	3.415130	0.034151
101.553000	3.414850	0.034149
101.697000	3.414620	0.034146
101.842000	3.414440	0.034144
101.987000	3.414290	0.034143
102.134000	3.414220	0.034142
102.282000	3.414190	0.034142
102.431000	3.414200	0.034142
102.581000	3.414410	0.034144
102.733000	3.414500	0.034145
102.886000	3.414600	0.034146
103.039000	3.414710	0.034147
103.193000	3.414830	0.034148
103.345000	3.414950	0.034150
103.497000	3.415050	0.034151
103.648000	3.415160	0.034152
103.798000	3.415260	0.034153
103.947000	3.415360	0.034154
104.096000	3.415460	0.034155
104.244000	3.415550	0.034156
104.390000	3.415650	0.034157
104.534000	3.415740	0.034157
104.678000	3.415840	0.034158
104.826000	3.415910	0.034159
104.974000	3.416000	0.034160
105.123000	3.416110	0.034161
105.271000	3.416230	0.034162
105.420000	3.416330	0.034163
105.570000	3.416460	0.034165
105.721000	3.416590	0.034166
105.871000	3.416720	0.034167
106.022000	3.416900	0.034169
106.173000	3.417060	0.034171
106.322000	3.417220	0.034172
106.472000	3.417340	0.034173
106.623000	3.417430	0.034174
106.772000	3.417490	0.034175
106.922000	3.417490	0.034175
107.074000	3.417530	0.034175
107.225000	3.417430	0.034174
107.378000	3.417280	0.034173
107.532000	3.417100	0.034171
107.686000	3.416890	0.034169
107.841000	3.416630	0.034166
107.995000	3.416360	0.034164
108.149000	3.416080	0.034161
108.304000	3.415750	0.034158
108.458000	3.415400	0.034154
108.611000	3.415030	0.034150
108.763000	3.414640	0.034146
108.914000	3.414230	0.034142
109.067000	3.413820	0.034138
109.217000	3.413420	0.034134
109.367000	3.413040	0.034130
109.515000	3.412720	0.034127
109.662000	3.412430	0.034124
109.809000	3.412190	0.034122
109.954000	3.412000	0.034120
110.100000	3.411850	0.034119
110.245000	3.411760	0.034118
110.390000	3.411740	0.034117
110.535000	3.411790	0.034118
110.679000	3.411890	0.034119
110.820000	3.412050	0.034121
110.965000	3.412250	0.034123
111.108000	3.412480	0.034125
111.250000	3.412760	0.034128
111.393000	3.413320	0.034133
111.532000	3.413610	0.034136
111.673000	3.413870	0.034139
111.814000	3.414090	0.034141
111.954000	3.414220	0.034142
112.094000	3.414240	0.034142
112.234000	3.414240	0.034142
112.373000	3.414130	0.034141
112.513000	3.413990	0.034140
112.650000	3.413800	0.034138
112.787000	3.413610	0.034136
112.923000	3.413400	0.034134
113.059000	3.413220	0.034132
113.194000	3.413070	0.034131
113.329000	3.412970	0.034130
113.463000	3.412920	0.034129
113.597000	3.412950	0.034130
113.730000	3.413010	0.034130
113.861000	3.413130	0.034131
113.994000	3.413260	0.034133
114.126000	3.413420	0.034134
114.259000	3.413610	0.034136
114.394000	3.413790	0.034138
114.528000	3.414010	0.034140
114.664000	3.414250	0.034143
114.801000	3.414540	0.034145
114.938000	3.414860	0.034149
115.078000	3.415180	0.034152
115.219000	3.415500	0.034155
115.361000	3.415820	0.034158
115.504000	3.416260	0.034163
115.647000	3.416520	0.034165
115.789000	3.416700	0.034167
115.931000	3.416810	0.034168
116.072000	3.416850	0.034169
116.213000	3.416790	0.034168
116.355000	3.416660	0.034167
116.496000	3.416450	0.034165
116.638000	3.416140	0.034161
116.779000	3.415790	0.034158
116.920000	3.415380	0.034154
117.058000	3.414910	0.034149
117.196000	3.414420	0.034144
117.333000	3.413910	0.034139
117.468000	3.413380	0.034134
117.603000	3.412850	0.034129
117.738000	3.412320	0.034123
117.873000	3.411800	0.034118
118.006000	3.411300	0.034113
118.139000	3.410830	0.034108
118.271000	3.410380	0.034104
118.403000	3.410000	0.034100
118.535000	3.409730	0.034097
118.667000	3.409580	0.034096
118.800000	3.409550	0.034096
118.932000	3.409670	0.034097
119.064000	3.409890	0.034099
119.196000	3.410180	0.034102
119.329000	3.410540	0.034105
119.463000	3.410950	0.034110
119.596000	3.411390	0.034114
119.730000	3.411800	0.034118
119.864000	3.412150	0.034122
119.999000	3.412430	0.034124
120.132000	3.412590	0.034126
120.266000	3.412640	0.034126
120.401000	3.412600	0.034126
120.534000	3.412490	0.034125
120.667000	3.412320	0.034123
120.799000	3.412110	0.034121
120.933000	3.411890	0.034119
121.069000	3.411640	0.034116
121.202000	3.411420	0.034114
121.338000	3.411200	0.034112
121.473000	3.411010	0.034110
121.609000	3.410840	0.034108
121.744000	3.410700	0.034107
121.879000	3.410600	0.034106
122.014000	3.410530	0.034105
122.148000	3.410520	0.034105
122.282000	3.410550	0.034106
122.417000	3.410690	0.034107
122.551000	3.410790	0.034108
122.687000	3.410910	0.034109
122.825000	3.411080	0.034111
122.960000	3.411270	0.034113
123.096000	3.411510	0.034115
123.230000	3.411750	0.034118
123.364000	3.412010	0.034120
123.498000	3.412270	0.034123
123.633000	3.412540	0.034125
123.769000	3.412810	0.034128
123.904000	3.413080	0.034131
124.040000	3.413350	0.034134
124.176000	3.413530	0.034135
124.312000	3.413670	0.034137
124.446000	3.413750	0.034138
124.582000	3.413760	0.034138
124.718000	3.413700	0.034137
124.853000	3.413570	0.034136
124.990000	3.413390	0.034134
125.123000	3.413150	0.034132
125.255000	3.412850	0.034129
125.386000	3.412490	0.034125
125.518000	3.412090	0.034121
125.649000	3.411650	0.034117
125.779000	3.411150	0.034112
125.909000	3.410650	0.034107
126.040000	3.410110	0.034101
126.170000	3.409550	0.034096
126.300000	3.408970	0.034090
126.427000	3.408370	0.034084
126.554000	3.407800	0.034078
126.681000	3.407280	0.034073
126.808000	3.406800	0.034068
126.934000	3.406400	0.034064
127.061000	3.406080	0.034061
127.187000	3.405840	0.034058
127.312000	3.405650	0.034057
127.436000	3.405550	0.034056
127.560000	3.405510	0.034055
127.683000	3.405490	0.034055
127.807000	3.405520	0.034055
127.930000	3.405520	0.034055
128.053000	3.405510	0.034055
128.178000	3.405450	0.034055
128.301000	3.405370	0.034054
128.425000	3.405280	0.034053
128.548000	3.405190	0.034052
128.672000	3.405050	0.034051
128.796000	3.404910	0.034049
128.921000	3.404770	0.034048
129.045000	3.404650	0.034047
129.169000	3.404570	0.034046
129.293000	3.404510	0.034045
129.418000	3.404490	0.034045
129.543000	3.404540	0.034045
129.669000	3.404640	0.034046
129.795000	3.404800	0.034048
129.921000	3.405020	0.034050
130.045000	3.405280	0.034053
130.170000	3.405710	0.034057
130.297000	3.406030	0.034060
130.424000	3.406370	0.034064
130.553000	3.406750	0.034068
130.680000	3.407150	0.034072
130.808000	3.407590	0.034076
130.936000	3.408020	0.034080
131.064000	3.408450	0.034085
131.192000	3.408860	0.034089
131.322000	3.409260	0.034093
131.451000	3.409600	0.034096
131.580000	3.409830	0.034098
131.709000	3.409950	0.034100
131.839000	3.409940	0.034099
131.969000	3.409760	0.034098
132.098000	3.409510	0.034095
132.226000	3.409140	0.034091
132.354000	3.408680	0.034087
132.480000	3.408110	0.034081
132.607000	3.407480	0.034075
132.734000	3.406800	0.034068
132.862000	3.406100	0.034061
132.989000	3.405420	0.034054
133.116000	3.404760	0.034048
133.241000	3.404140	0.034041
133.365000	3.403580	0.034036
133.490000	3.403060	0.034031
133.614000	3.402610	0.034026
133.736000	3.402180	0.034022
133.858000	3.401770	0.034018
133.982000	3.401520	0.034015
134.102000	3.401160	0.034012
134.222000	3.400800	0.034008
134.344000	3.400470	0.034005
134.465000	3.400170	0.034002
134.587000	3.399880	0.033999
134.709000	3.399640	0.033996
134.832000	3.399420	0.033994
134.953000	3.399220	0.033992
135.075000	3.399020	0.033990
135.197000	3.398770	0.033988
135.318000	3.398600	0.033986
135.438000	3.398450	0.033985
135.559000	3.398310	0.033983
135.680000	3.398180	0.033982
135.801000	3.398040	0.033980
135.922000	3.397940	0.033979
136.043000	3.397850	0.033979
136.161000	3.397780	0.033978
136.282000	3.397730	0.033977
136.402000	3.397690	0.033977
136.524000	3.397680	0.033977
136.646000	3.397650	0.033977
136.767000	3.397670	0.033977
136.887000	3.397720	0.033977
137.006000	3.397780	0.033978
137.124000	3.397870	0.033979
137.243000	3.398010	0.033980
137.362000	3.398170	0.033982
137.481000	3.398360	0.033984
137.600000	3.398580	0.033986
137.718000	3.398870	0.033989
137.836000	3.399160	0.033992
137.952000	3.399480	0.033995
138.069000	3.399850	0.033999
138.186000	3.400240	0.034002
138.301000	3.400650	0.034007
138.416000	3.401100	0.034011
138.530000	3.401560	0.034016
138.643000	3.402000	0.034020
138.756000	3.402420	0.034024
138.868000	3.402770	0.034028
138.978000	3.403010	0.034030
139.090000	3.403170	0.034032
139.201000	3.403230	0.034032
139.310000	3.403160	0.034032
139.419000	3.403010	0.034030
139.529000	3.402800	0.034028
139.637000	3.402540	0.034025
139.747000	3.402240	0.034022
139.856000	3.401940	0.034019
139.963000	3.401650	0.034017
140.069000	3.401360	0.034014
140.174000	3.401140	0.034011
140.280000	3.400960	0.034010
140.387000	3.400800	0.034008
140.495000	3.400670	0.034007
140.604000	3.400540	0.034005
140.715000	3.400450	0.034005
140.827000	3.400360	0.034004
140.940000	3.400290	0.034003
141.054000	3.400190	0.034002
141.168000	3.400120	0.034001
141.285000	3.400020	0.034000
141.402000	3.399930	0.033999
141.519000	3.399860	0.033999
141.638000	3.399890	0.033999
141.759000	3.399920	0.033999
141.879000	3.399950	0.034000
142.000000	3.399960	0.034000
142.122000	3.399800	0.033998
142.243000	3.399770	0.033998
142.365000	3.399680	0.033997
142.487000	3.399530	0.033995
142.611000	3.399320	0.033993
142.734000	3.399050	0.033991
142.858000	3.398720	0.033987
142.982000	3.398350	0.033984
143.104000	3.397950	0.033980
143.227000	3.397510	0.033975
143.349000	3.397050	0.033971
143.471000	3.396580	0.033966
143.592000	3.396110	0.033961
143.714000	3.395640	0.033956
143.836000	3.395190	0.033952
143.958000	3.394760	0.033948
144.081000	3.394340	0.033943
144.204000	3.393950	0.033940
144.326000	3.393590	0.033936
144.447000	3.393260	0.033933
144.571000	3.393000	0.033930
144.693000	3.392810	0.033928
144.815000	3.392790	0.033928
144.939000	3.392760	0.033928
145.059000	3.392810	0.033928
145.182000	3.392940	0.033929
145.304000	3.393170	0.033932
145.427000	3.393480	0.033935
145.551000	3.393870	0.033939
145.674000	3.394330	0.033943
145.800000	3.394680	0.033947
145.925000	3.395160	0.033952
146.050000	3.395620	0.033956
146.176000	3.396030	0.033960
146.300000	3.396390	0.033964
146.424000	3.396700	0.033967
146.546000	3.396920	0.033969
146.668000	3.397090	0.033971
146.792000	3.397220	0.033972
146.916000	3.397290	0.033973
147.039000	3.397340	0.033973
147.165000	3.397370	0.033974
147.291000	3.397380	0.033974
147.418000	3.397380	0.033974
147.546000	3.397370	0.033974
147.673000	3.397350	0.033974
147.803000	3.397320	0.033973
147.935000	3.397270	0.033973
148.066000	3.397190	0.033972
148.200000	3.397080	0.033971
148.336000	3.396930	0.033969
148.473000	3.396750	0.033968
148.610000	3.396510	0.033965
148.748000	3.396430	0.033964
148.885000	3.396130	0.033961
149.024000	3.395810	0.033958
149.162000	3.395490	0.033955
149.301000	3.395150	0.033952
149.441000	3.394800	0.033948
149.580000	3.394440	0.033944
149.717000	3.394060	0.033941
149.854000	3.393640	0.033936
149.992000	3.393210	0.033932
150.129000	3.392770	0.033928
150.266000	3.392290	0.033923
150.403000	3.391780	0.033918
150.539000	3.391270	0.033913
150.675000	3.390730	0.033907
150.810000	3.390190	0.033902
150.944000	3.389660	0.033897
151.077000	3.389150	0.033892
151.211000	3.388680	0.033887
151.344000	3.388240	0.033882
151.477000	3.387810	0.033878
151.610000	3.387390	0.033874
151.743000	3.386980	0.033870
151.876000	3.386560	0.033866
152.010000	3.386140	0.033861
152.143000	3.385690	0.033857
152.274000	3.385240	0.033852
152.407000	3.384780	0.033848
152.540000	3.384270	0.033843
152.673000	3.383790	0.033838
152.808000	3.383250	0.033833
152.941000	3.382690	0.033827
153.076000	3.382160	0.033822
153.212000	3.381630	0.033816
153.348000	3.381140	0.033811
153.483000	3.380660	0.033807
153.618000	3.380220	0.033802
153.751000	3.379800	0.033798
153.881000	3.379410	0.033794
154.010000	3.379030	0.033790
154.140000	3.378660	0.033787
154.271000	3.378310	0.033783
154.402000	3.377920	0.033779
154.533000	3.377420	0.033774
154.666000	3.376930	0.033769
154.800000	3.376430	0.033764
154.935000	3.375950	0.033760
155.067000	3.375490	0.033755
155.201000	3.375090	0.033751
155.335000	3.374730	0.033747
155.467000	3.374430	0.033744
155.599000	3.374180	0.033742
155.732000	3.373980	0.033740
155.864000	3.373850	0.033739
155.995000	3.373750	0.033738
156.126000	3.373700	0.033737
156.255000	3.373690	0.033737
156.385000	3.373730	0.033737
156.514000	3.373780	0.033738
156.644000	3.373860	0.033739
156.773000	3.373950	0.033740
156.901000	3.374040	0.033740
157.029000	3.374180	0.033742
157.156000	3.374300	0.033743
157.284000	3.374430	0.033744
157.411000	3.374590	0.033746
157.538000	3.374700	0.033747
157.666000	3.374810	0.033748
157.792000	3.374870	0.033749
157.919000	3.374790	0.033748
158.047000	3.374730	0.033747
158.174000	3.374620	0.033746
158.301000	3.374430	0.033744
158.430000	3.374160	0.033742
158.558000	3.373810	0.033738
158.685000	3.373400	0.033734
158.812000	3.372950	0.033730
158.940000	3.372480	0.033725
159.069000	3.372000	0.033720
159.198000	3.371560	0.033716
159.328000	3.371140	0.033711
159.462000	3.370730	0.033707
159.596000	3.370340	0.033703
159.730000	3.369960	0.033700
159.863000	3.369590	0.033696
159.996000	3.369220	0.033692
160.129000	3.368830	0.033688
160.261000	3.368420	0.033684
160.393000	3.367970	0.033680
160.525000	3.367470	0.033675
160.656000	3.366930	0.033669
160.787000	3.366370	0.033664
160.917000	3.365900	0.033659
161.046000	3.365250	0.033653
161.175000	3.364580	0.033646
161.305000	3.363930	0.033639
161.435000	3.363300	0.033633
161.565000	3.362670	0.033627
161.696000	3.362070	0.033621
161.828000	3.361500	0.033615
161.961000	3.360780	0.033608
162.093000	3.360250	0.033603
162.225000	3.359720	0.033597
162.355000	3.359170	0.033592
162.486000	3.358610	0.033586
162.619000	3.358020	0.033580
162.752000	3.357400	0.033574
162.885000	3.356780	0.033568
163.018000	3.356120	0.033561
163.152000	3.355440	0.033554
163.287000	3.354740	0.033547
163.423000	3.354000	0.033540
163.561000	3.353240	0.033532
163.700000	3.352440	0.033524
163.840000	3.351610	0.033516
163.980000	3.350730	0.033507
164.118000	3.349800	0.033498
164.254000	3.348840	0.033488
164.390000	3.347820	0.033478
164.524000	3.346790	0.033468
164.658000	3.345720	0.033457
164.793000	3.344630	0.033446
164.927000	3.343530	0.033435
165.062000	3.342200	0.033422
165.197000	3.341100	0.033411
165.332000	3.340010	0.033400
165.467000	3.338930	0.033389
165.601000	3.337960	0.033380
165.736000	3.337040	0.033370
165.873000	3.336180	0.033362
166.010000	3.335410	0.033354
166.149000	3.334730	0.033347
166.289000	3.334090	0.033341
166.432000	3.333490	0.033335
166.575000	3.332930	0.033329
166.718000	3.332410	0.033324
166.864000	3.331880	0.033319
167.009000	3.331360	0.033314
167.155000	3.330820	0.033308
167.300000	3.330260	0.033303
167.446000	3.329670	0.033297
167.592000	3.329030	0.033290
167.738000	3.328370	0.033284
167.883000	3.327660	0.033277
168.029000	3.326930	0.033269
168.173000	3.326170	0.033262
168.318000	3.325390	0.033254
168.463000	3.324620	0.033246
168.607000	3.323850	0.033239
168.751000	3.323080	0.033231
168.895000	3.322320	0.033223
169.040000	3.321560	0.033216
169.185000	3.320800	0.033208
169.329000	3.320050	0.033201
169.472000	3.319440	0.033194
169.614000	3.318680	0.033187
169.753000	3.317930	0.033179
169.892000	3.317160	0.033172
170.033000	3.316370	0.033164
170.172000	3.315570	0.033156
170.310000	3.314740	0.033147
170.448000	3.313860	0.033139
170.588000	3.312890	0.033129
170.728000	3.311870	0.033119
170.869000	3.310780	0.033108
171.011000	3.309600	0.033096
171.154000	3.308360	0.033084
171.298000	3.307010	0.033070
171.442000	3.305570	0.033056
171.586000	3.304040	0.033040
171.728000	3.302430	0.033024
171.870000	3.300720	0.033007
172.010000	3.298960	0.032990
172.150000	3.297120	0.032971
172.288000	3.295220	0.032952
172.426000	3.293290	0.032933
172.564000	3.291270	0.032913
172.702000	3.289200	0.032892
172.841000	3.287080	0.032871
172.978000	3.284910	0.032849
173.113000	3.282700	0.032827
173.248000	3.280450	0.032805
173.382000	3.278170	0.032782
173.516000	3.275890	0.032759
173.650000	3.273600	0.032736
173.784000	3.271270	0.032713
173.916000	3.268980	0.032690
174.050000	3.266720	0.032667
174.185000	3.264500	0.032645
174.321000	3.262350	0.032624
174.457000	3.260250	0.032603
174.596000	3.258180	0.032582
174.736000	3.256020	0.032560
174.876000	3.254050	0.032541
175.016000	3.252100	0.032521
175.156000	3.250180	0.032502
175.293000	3.248260	0.032483
175.429000	3.246380	0.032464
175.565000	3.244530	0.032445
175.703000	3.242710	0.032427
175.841000	3.240930	0.032409
175.981000	3.239190	0.032392
176.122000	3.237500	0.032375
176.264000	3.235860	0.032359
176.406000	3.234260	0.032343
176.548000	3.232740	0.032327
176.689000	3.231270	0.032313
176.830000	3.229850	0.032299
176.972000	3.228490	0.032285
177.113000	3.227190	0.032272
177.255000	3.225930	0.032259
177.395000	3.224730	0.032247
177.534000	3.223580	0.032236
177.675000	3.222460	0.032225
177.815000	3.221380	0.032214
177.955000	3.220330	0.032203
178.095000	3.219340	0.032193
178.235000	3.218320	0.032183
178.376000	3.217320	0.032173
178.517000	3.216360	0.032164
178.659000	3.215400	0.032154
178.800000	3.214460	0.032145
178.940000	3.213510	0.032135
179.080000	3.212770	0.032128
179.220000	3.211770	0.032118
179.358000	3.210740	0.032107
179.494000	3.209680	0.032097
179.630000	3.208490	0.032085
179.766000	3.207280	0.032073
179.902000	3.205980	0.032060
180.039000	3.204580	0.032046
180.173000	3.203090	0.032031
180.306000	3.201500	0.032015
180.439000	3.199810	0.031998
180.572000	3.198020	0.031980
180.705000	3.196090	0.031961
180.840000	3.194060	0.031941
180.975000	3.191910	0.031919
181.109000	3.189660	0.031897
181.245000	3.187290	0.031873
181.380000	3.184850	0.031849
181.515000	3.182310	0.031823
181.649000	3.179670	0.031797
181.781000	3.176940	0.031769
181.914000	3.174110	0.031741
182.048000	3.171180	0.031712
182.182000	3.167890	0.031679
182.318000	3.164740	0.031647
182.455000	3.161490	0.031615
182.592000	3.158150	0.031582
182.729000	3.154760	0.031548
182.866000	3.151340	0.031513
183.001000	3.147870	0.031479
183.139000	3.144360	0.031444
183.277000	3.140700	0.031407
183.416000	3.137140	0.031371
183.555000	3.133540	0.031335
183.695000	3.129910	0.031299
183.834000	3.126280	0.031263
183.975000	3.122620	0.031226
184.115000	3.118960	0.031190
184.257000	3.115330	0.031153
184.398000	3.111720	0.031117
184.538000	3.108140	0.031081
184.678000	3.104620	0.031046
184.817000	3.101130	0.031011
184.956000	3.097700	0.030977
185.095000	3.094310	0.030943
185.233000	3.090960	0.030910
185.372000	3.087650	0.030877
185.511000	3.084380	0.030844
185.653000	3.081140	0.030811
185.797000	3.077910	0.030779
185.941000	3.074720	0.030747
186.085000	3.071540	0.030715
186.229000	3.068400	0.030684
186.374000	3.065310	0.030653
186.518000	3.062510	0.030625
186.661000	3.059530	0.030595
186.804000	3.056620	0.030566
186.947000	3.053800	0.030538
187.090000	3.051060	0.030511
187.233000	3.048400	0.030484
187.376000	3.045810	0.030458
187.519000	3.043280	0.030433
187.663000	3.040840	0.030408
187.809000	3.038390	0.030384
187.954000	3.035970	0.030360
188.100000	3.033550	0.030336
188.246000	3.031100	0.030311
188.391000	3.028630	0.030286
188.538000	3.026150	0.030262
188.683000	3.023650	0.030237
188.827000	3.021110	0.030211
188.970000	3.018540	0.030185
189.112000	3.015910	0.030159
189.255000	3.013250	0.030133
189.398000	3.010520	0.030105
189.542000	3.007760	0.030078
189.684000	3.004940	0.030049
189.830000	3.002070	0.030021
189.977000	2.999170	0.029992
190.125000	2.996230	0.029962
190.273000	2.993260	0.029933
190.420000	2.990260	0.029903
190.570000	2.987250	0.029873
190.722000	2.984190	0.029842
190.874000	2.981050	0.029811
191.025000	2.977640	0.029776
191.176000	2.974320	0.029743
191.325000	2.970870	0.029709
191.472000	2.967310	0.029673
191.619000	2.963680	0.029637
191.766000	2.959900	0.029599
191.912000	2.955990	0.029560
192.058000	2.951970	0.029520
192.205000	2.947780	0.029478
192.354000	2.943490	0.029435
192.502000	2.939050	0.029391
192.651000	2.934450	0.029345
192.798000	2.929690	0.029297
192.946000	2.924750	0.029248
193.092000	2.919670	0.029197
193.233000	2.914440	0.029144
193.371000	2.909070	0.029091
193.510000	2.903580	0.029036
193.650000	2.897920	0.028979
193.791000	2.892120	0.028921
193.929000	2.886170	0.028862
194.070000	2.880070	0.028801
194.211000	2.873830	0.028738
194.350000	2.867510	0.028675
194.489000	2.861080	0.028611
194.628000	2.854580	0.028546
194.767000	2.848050	0.028481
194.906000	2.841550	0.028416
195.045000	2.835080	0.028351
195.182000	2.828690	0.028287
195.319000	2.822420	0.028224
195.454000	2.816290	0.028163
195.589000	2.810280	0.028103
195.724000	2.804420	0.028044
195.860000	2.798710	0.027987
195.998000	2.793160	0.027932
196.138000	2.787740	0.027877
196.279000	2.782470	0.027825
196.421000	2.777570	0.027776
196.564000	2.772530	0.027725
196.708000	2.767580	0.027676
196.852000	2.762700	0.027627
196.997000	2.757840	0.027578
197.141000	2.753000	0.027530
197.286000	2.748180	0.027482
197.432000	2.743350	0.027434
197.578000	2.738520	0.027385
197.726000	2.733690	0.027337
197.874000	2.728860	0.027289
198.022000	2.724030	0.027240
198.171000	2.719190	0.027192
198.319000	2.714350	0.027144
198.468000	2.709480	0.027095
198.617000	2.704590	0.027046
198.766000	2.699670	0.026997
198.916000	2.694730	0.026947
199.065000	2.689770	0.026898
199.214000	2.684780	0.026848
199.360000	2.679750	0.026798
199.501000	2.674700	0.026747
199.640000	2.669610	0.026696
199.778000	2.664500	0.026645
199.914000	2.659350	0.026594
200.050000	2.654200	0.026542
200.186000	2.649030	0.026490
200.324000	2.643850	0.026439
200.464000	2.638690	0.026387
200.604000	2.633510	0.026335
200.747000	2.628360	0.026284
200.890000	2.622980	0.026230
201.032000	2.617850	0.026179
201.175000	2.612710	0.026127
201.316000	2.607560	0.026076
201.458000	2.602400	0.026024
201.601000	2.597210	0.025972
201.745000	2.591990	0.025920
201.891000	2.586750	0.025868
202.039000	2.581470	0.025815
202.187000	2.576160	0.025762
202.337000	2.570820	0.025708
202.488000	2.565430	0.025654
202.637000	2.559970	0.025600
202.784000	2.554430	0.025544
202.929000	2.548750	0.025488
203.070000	2.542960	0.025430
203.210000	2.537020	0.025370
203.350000	2.530940	0.025309
203.490000	2.524710	0.025247
203.631000	2.518320	0.025183
203.777000	2.511790	0.025118
203.929000	2.505090	0.025051
204.084000	2.498210	0.024982
204.243000	2.491170	0.024912
204.398000	2.483940	0.024839
204.553000	2.476600	0.024766
204.710000	2.469080	0.024691
204.864000	2.461410	0.024614
205.017000	2.453560	0.024536
205.170000	2.445620	0.024456
205.322000	2.437600	0.024376
205.473000	2.429690	0.024297
205.624000	2.421520	0.024215
205.774000	2.413330	0.024133
205.923000	2.405090	0.024051
206.073000	2.396790	0.023968
206.222000	2.388510	0.023885
206.373000	2.380220	0.023802
206.524000	2.371950	0.023720
206.675000	2.363710	0.023637
206.824000	2.355520	0.023555
206.971000	2.347410	0.023474
207.118000	2.339380	0.023394
207.263000	2.331470	0.023315
207.406000	2.323700	0.023237
207.547000	2.316050	0.023161
207.689000	2.308510	0.023085
207.829000	2.301090	0.023011
207.968000	2.293770	0.022938
208.104000	2.286560	0.022866
208.241000	2.279470	0.022795
208.377000	2.272500	0.022725
208.514000	2.265630	0.022656
208.652000	2.258870	0.022589
208.789000	2.252170	0.022522
208.926000	2.245590	0.022456
209.067000	2.239130	0.022391
209.208000	2.232730	0.022327
209.348000	2.226360	0.022264
209.489000	2.220040	0.022200
209.629000	2.213730	0.022137
209.769000	2.207430	0.022074
209.911000	2.201090	0.022011
210.055000	2.194730	0.021947
210.202000	2.188340	0.021883
210.354000	2.181890	0.021819
210.509000	2.175410	0.021754
210.666000	2.168870	0.021689
210.827000	2.162290	0.021623
210.987000	2.155670	0.021557
211.147000	2.149020	0.021490
211.304000	2.142330	0.021423
211.460000	2.135620	0.021356
211.614000	2.128900	0.021289
211.765000	2.122160	0.021222
211.914000	2.115410	0.021154
212.065000	2.108660	0.021087
212.213000	2.101930	0.021019
212.363000	2.095230	0.020952
212.511000	2.088560	0.020886
212.656000	2.081940	0.020819
212.801000	2.075380	0.020754
212.944000	2.068870	0.020689
213.085000	2.062440	0.020624
213.225000	2.056080	0.020561
213.365000	2.049770	0.020498
213.505000	2.043530	0.020435
213.644000	2.037320	0.020373
213.786000	2.031160	0.020312
213.932000	2.025050	0.020251
214.080000	2.018960	0.020190
214.231000	2.012920	0.020129
214.384000	2.006890	0.020069
214.538000	2.000880	0.020009
214.691000	1.994840	0.019948
214.841000	1.988730	0.019887
214.990000	1.982530	0.019825
215.135000	1.976170	0.019762
215.280000	1.969680	0.019697
215.425000	1.962990	0.019630
215.572000	1.956090	0.019561
215.716000	1.948990	0.019490
215.863000	1.941680	0.019417
216.010000	1.934150	0.019342
216.159000	1.926400	0.019264
216.309000	1.918420	0.019184
216.458000	1.910240	0.019102
216.607000	1.901850	0.019019
216.756000	1.893270	0.018933
216.904000	1.884510	0.018845
217.050000	1.875580	0.018756
217.198000	1.866510	0.018665
217.345000	1.857310	0.018573
217.492000	1.848050	0.018481
217.636000	1.838740	0.018387
217.782000	1.829440	0.018294
217.928000	1.820150	0.018202
218.072000	1.810890	0.018109
218.217000	1.801670	0.018017
218.361000	1.792520	0.017925
218.506000	1.783500	0.017835
218.651000	1.774580	0.017746
218.794000	1.765790	0.017658
218.939000	1.757160	0.017572
219.084000	1.748690	0.017487
219.229000	1.740330	0.017403
219.373000	1.732120	0.017321
219.516000	1.724020	0.017240
219.654000	1.716050	0.017161
219.794000	1.708140	0.017081
219.934000	1.700340	0.017003
220.069000	1.692630	0.016926
220.207000	1.685030	0.016850
220.345000	1.677540	0.016775
220.481000	1.670160	0.016702
220.620000	1.662850	0.016629
220.758000	1.655650	0.016557
220.895000	1.648550	0.016486
221.032000	1.641510	0.016415
221.169000	1.634540	0.016345
221.305000	1.627630	0.016276
221.442000	1.620740	0.016207
221.575000	1.613880	0.016139
221.707000	1.607030	0.016070
221.840000	1.600180	0.016002
221.972000	1.593330	0.015933
222.105000	1.586500	0.015865
222.236000	1.579690	0.015797
222.370000	1.572920	0.015729
222.504000	1.566190	0.015662
222.640000	1.559510	0.015595
222.775000	1.552890	0.015529
222.913000	1.546380	0.015464
223.048000	1.539940	0.015399
223.184000	1.533590	0.015336
223.326000	1.527330	0.015273
223.466000	1.521080	0.015211
223.605000	1.514930	0.015149
223.745000	1.508870	0.015089
223.885000	1.502870	0.015029
224.020000	1.496920	0.014969
224.155000	1.491000	0.014910
224.293000	1.485130	0.014851
224.427000	1.479280	0.014793
224.560000	1.473490	0.014735
224.692000	1.467720	0.014677
224.824000	1.461960	0.014620
224.953000	1.456230	0.014562
225.081000	1.450500	0.014505
225.206000	1.444770	0.014448
225.331000	1.439020	0.014390
225.457000	1.433250	0.014333
225.584000	1.427450	0.014275
225.712000	1.421610	0.014216
225.841000	1.415690	0.014157
225.970000	1.409670	0.014097
226.100000	1.403540	0.014035
226.231000	1.397300	0.013973
226.359000	1.390900	0.013909
226.487000	1.384360	0.013844
226.613000	1.377670	0.013777
226.739000	1.370800	0.013708
226.866000	1.363770	0.013638
226.997000	1.356570	0.013566
227.129000	1.349180	0.013492
227.264000	1.341680	0.013417
227.396000	1.334040	0.013340
227.530000	1.326300	0.013263
227.664000	1.318460	0.013185
227.798000	1.310510	0.013105
227.929000	1.302470	0.013025
228.062000	1.294340	0.012943
228.194000	1.286130	0.012861
228.327000	1.277840	0.012778
228.463000	1.269500	0.012695
228.597000	1.261150	0.012612
228.732000	1.252810	0.012528
228.868000	1.244520	0.012445
229.005000	1.236310	0.012363
229.139000	1.228190	0.012282
229.274000	1.220200	0.012202
229.411000	1.212350	0.012124
229.548000	1.204660	0.012047
229.687000	1.197160	0.011972
229.826000	1.189850	0.011899
229.963000	1.182740	0.011827
230.101000	1.175840	0.011758
230.237000	1.169110	0.011691
230.374000	1.162560	0.011626
230.510000	1.156170	0.011562
230.644000	1.149970	0.011500
230.779000	1.143920	0.011439
230.914000	1.138030	0.011380
231.051000	1.132290	0.011323
231.189000	1.126690	0.011267
231.325000	1.121180	0.011212
231.462000	1.115950	0.011160
231.600000	1.110690	0.011107
231.736000	1.105550	0.011056
231.873000	1.100540	0.011005
232.011000	1.095600	0.010956
232.149000	1.090740	0.010907
232.287000	1.085950	0.010860
232.424000	1.081190	0.010812
232.561000	1.076440	0.010764
232.698000	1.071700	0.010717
232.834000	1.066990	0.010670
232.969000	1.062320	0.010623
233.106000	1.057680	0.010577
233.242000	1.053070	0.010531
233.377000	1.048490	0.010485
233.513000	1.043950	0.010440
233.647000	1.039460	0.010395
233.782000	1.035010	0.010350
233.914000	1.030610	0.010306
234.047000	1.026260	0.010263
234.179000	1.021960	0.010220
234.306000	1.017710	0.010177
234.429000	1.013520	0.010135
234.551000	1.009400	0.010094
234.670000	1.005350	0.010054
234.789000	1.001380	0.010014
234.910000	0.997492	0.009975
235.033000	0.993678	0.009937
235.159000	0.989938	0.009899
235.287000	0.986274	0.009863
235.417000	0.982656	0.009827
235.547000	0.979067	0.009791
235.677000	0.975489	0.009755
235.803000	0.971981	0.009720
235.930000	0.968404	0.009684
236.057000	0.964798	0.009648
236.185000	0.961127	0.009611
236.315000	0.957407	0.009574
236.449000	0.953643	0.009536
236.586000	0.949812	0.009498
236.725000	0.945916	0.009459
236.863000	0.941924	0.009419
237.001000	0.937800	0.009378
237.141000	0.933523	0.009335
237.279000	0.929083	0.009291
237.420000	0.924478	0.009245
237.563000	0.919715	0.009197
237.706000	0.914810	0.009148
237.849000	0.909724	0.009097
237.997000	0.904500	0.009045
238.141000	0.899136	0.008991
238.284000	0.893642	0.008936
238.426000	0.888045	0.008880
238.567000	0.882359	0.008824
238.707000	0.876594	0.008766
238.844000	0.870765	0.008708
238.983000	0.864883	0.008649
239.121000	0.858985	0.008590
239.259000	0.853095	0.008531
239.397000	0.847241	0.008472
239.531000	0.841429	0.008414
239.665000	0.835681	0.008357
239.797000	0.830050	0.008301
239.926000	0.824539	0.008245
240.056000	0.819174	0.008192
240.186000	0.813974	0.008140
240.315000	0.808937	0.008089
240.443000	0.804089	0.008041
240.570000	0.799463	0.007995
240.697000	0.794982	0.007950
240.823000	0.790677	0.007907
240.948000	0.786526	0.007865
241.073000	0.782498	0.007825
241.198000	0.778596	0.007786
241.322000	0.774815	0.007748
241.446000	0.771151	0.007712
241.573000	0.767596	0.007676
241.703000	0.764147	0.007641
241.833000	0.760806	0.007608
241.964000	0.757572	0.007576
242.096000	0.754438	0.007544
242.227000	0.751381	0.007514
242.357000	0.748383	0.007484
242.486000	0.745460	0.007455
242.616000	0.742600	0.007426
242.747000	0.739801	0.007398
242.877000	0.737039	0.007370
243.008000	0.734312	0.007343
243.140000	0.731617	0.007316
243.270000	0.728941	0.007289
243.401000	0.726289	0.007263
243.534000	0.723678	0.007237
243.667000	0.721112	0.007211
243.802000	0.718592	0.007186
243.938000	0.716107	0.007161
244.075000	0.713665	0.007137
244.217000	0.711257	0.007113
244.363000	0.708896	0.007089
244.511000	0.706577	0.007066
244.661000	0.704326	0.007043
244.812000	0.701971	0.007020
244.961000	0.699809	0.006998
245.110000	0.697736	0.006977
245.258000	0.695690	0.006957
245.402000	0.693670	0.006937
245.545000	0.691675	0.006917
245.688000	0.689704	0.006897
245.829000	0.687773	0.006878
245.973000	0.685842	0.006858
246.114000	0.683955	0.006840
246.254000	0.682064	0.006821
246.392000	0.680167	0.006802
246.529000	0.678251	0.006783
246.663000	0.676300	0.006763
246.796000	0.674332	0.006743
246.931000	0.672318	0.006723
247.060000	0.670213	0.006702
247.186000	0.668005	0.006680
247.309000	0.665689	0.006657
247.434000	0.663270	0.006633
247.555000	0.660739	0.006607
247.671000	0.658109	0.006581
247.785000	0.655385	0.006554
247.900000	0.652557	0.006526
248.009000	0.649632	0.006496
248.117000	0.646613	0.006466
248.225000	0.643500	0.006435
248.334000	0.640316	0.006403
248.449000	0.637064	0.006371
248.569000	0.633740	0.006337
248.693000	0.630375	0.006304
248.817000	0.626995	0.006270
248.942000	0.623423	0.006234
249.069000	0.619966	0.006200
249.196000	0.616633	0.006166
249.322000	0.613375	0.006134
249.447000	0.610191	0.006102
249.575000	0.607086	0.006071
249.705000	0.604044	0.006040
249.836000	0.601085	0.006011
249.967000	0.598210	0.005982
250.098000	0.595417	0.005954
250.232000	0.592751	0.005928
250.370000	0.590239	0.005902
250.508000	0.587887	0.005879
250.647000	0.585687	0.005857
250.788000	0.583638	0.005836
250.927000	0.581722	0.005817
251.065000	0.579952	0.005800
251.205000	0.578344	0.005783
251.340000	0.576868	0.005769
251.474000	0.575508	0.005755
251.607000	0.574270	0.005743
251.739000	0.573130	0.005731
251.871000	0.572083	0.005721
252.001000	0.571104	0.005711
252.131000	0.570198	0.005702
252.260000	0.569347	0.005693
252.387000	0.568551	0.005686
252.513000	0.567803	0.005678
252.637000	0.567120	0.005671
252.762000	0.566465	0.005665
252.892000	0.565801	0.005658
253.023000	0.565119	0.005651
253.155000	0.564406	0.005644
253.287000	0.563390	0.005634
253.419000	0.562591	0.005626
253.553000	0.561754	0.005618
253.686000	0.560865	0.005609
253.821000	0.559940	0.005599
253.958000	0.558984	0.005590
254.091000	0.558006	0.005580
254.222000	0.557027	0.005570
254.353000	0.556053	0.005561
254.484000	0.555104	0.005551
254.616000	0.554189	0.005542
254.749000	0.553326	0.005533
254.884000	0.552520	0.005525
255.020000	0.551757	0.005518
255.155000	0.551047	0.005510
255.289000	0.550384	0.005504
255.423000	0.549770	0.005498
255.556000	0.549227	0.005492
255.687000	0.548716	0.005487
255.819000	0.548253	0.005483
255.952000	0.547806	0.005478
256.085000	0.547371	0.005474
256.218000	0.546927	0.005469
256.353000	0.546464	0.005465
256.488000	0.545977	0.005460
256.622000	0.545451	0.005455
256.761000	0.544893	0.005449
256.902000	0.544294	0.005443
257.045000	0.543649	0.005436
257.188000	0.542951	0.005430
257.332000	0.542208	0.005422
257.480000	0.541420	0.005414
257.630000	0.540579	0.005406
257.781000	0.539698	0.005397
257.936000	0.538796	0.005388
258.094000	0.537823	0.005378
258.252000	0.536806	0.005368
258.408000	0.535731	0.005357
258.560000	0.534604	0.005346
258.709000	0.533435	0.005334
258.857000	0.532234	0.005322
259.003000	0.530990	0.005310
259.150000	0.529703	0.005297
259.297000	0.528427	0.005284
259.446000	0.527098	0.005271
259.597000	0.525759	0.005258
259.750000	0.524415	0.005244
259.901000	0.523095	0.005231
260.052000	0.521806	0.005218
260.200000	0.520545	0.005205
260.348000	0.519333	0.005193
260.498000	0.518205	0.005182
260.646000	0.517190	0.005172
260.791000	0.516293	0.005163
260.935000	0.515512	0.005155
261.078000	0.514875	0.005149
261.215000	0.514367	0.005144
261.348000	0.513994	0.005140
261.479000	0.513774	0.005138
261.610000	0.513700	0.005137
261.741000	0.513751	0.005138
261.871000	0.513927	0.005139
261.998000	0.514186	0.005142
262.121000	0.514523	0.005145
262.246000	0.514922	0.005149
262.369000	0.515340	0.005153
262.491000	0.515762	0.005158
262.611000	0.516365	0.005164
262.734000	0.516775	0.005168
262.863000	0.517114	0.005171
262.994000	0.517380	0.005174
263.126000	0.517543	0.005175
263.254000	0.517653	0.005177
263.381000	0.517672	0.005177
263.508000	0.517607	0.005176
263.638000	0.517439	0.005174
263.767000	0.517188	0.005172
263.897000	0.516834	0.005168
264.029000	0.516379	0.005164
264.160000	0.515842	0.005158
264.292000	0.515231	0.005152
264.425000	0.514566	0.005146
264.562000	0.513847	0.005138
264.699000	0.513096	0.005131
264.838000	0.512295	0.005123
264.973000	0.511473	0.005115
265.103000	0.510642	0.005106
265.226000	0.509812	0.005098
265.347000	0.508995	0.005090
265.467000	0.508201	0.005082
265.589000	0.507457	0.005075
265.715000	0.506766	0.005068
265.844000	0.506152	0.005062
265.979000	0.505621	0.005056
266.111000	0.505190	0.005052
266.245000	0.504854	0.005049
266.379000	0.504631	0.005046
266.515000	0.504536	0.005045
266.650000	0.504572	0.005046
266.786000	0.504727	0.005047
266.922000	0.505264	0.005053
267.058000	0.505631	0.005056
267.196000	0.506073	0.005061
267.334000	0.506525	0.005065
267.472000	0.506987	0.005070
267.611000	0.507429	0.005074
267.750000	0.507881	0.005079
267.890000	0.508305	0.005083
268.030000	0.508695	0.005087
268.172000	0.509035	0.005090
268.315000	0.509290	0.005093
268.460000	0.509448	0.005094
268.607000	0.509503	0.005095
268.755000	0.509465	0.005095
268.903000	0.509332	0.005093
269.050000	0.509095	0.005091
269.196000	0.508765	0.005088
269.342000	0.508326	0.005083
269.487000	0.507799	0.005078
269.632000	0.507176	0.005072
269.777000	0.506496	0.005065
269.920000	0.505770	0.005058
270.060000	0.505005	0.005050
270.197000	0.504226	0.005042
270.336000	0.503430	0.005034
270.474000	0.502648	0.005026
270.610000	0.501888	0.005019
270.745000	0.501183	0.005012
270.882000	0.500573	0.005006
271.019000	0.500049	0.005000
271.157000	0.499624	0.004996
271.301000	0.499287	0.004993
271.449000	0.499053	0.004991
271.600000	0.498918	0.004989
271.751000	0.498818	0.004988
271.906000	0.498846	0.004988
272.063000	0.498932	0.004989
272.222000	0.499031	0.004990
272.385000	0.499198	0.004992
272.548000	0.499409	0.004994
272.712000	0.499652	0.004997
272.879000	0.499951	0.005000
273.048000	0.500288	0.005003
273.216000	0.500655	0.005007
273.379000	0.501019	0.005010
273.539000	0.501397	0.005014
273.699000	0.501777	0.005018
273.858000	0.502134	0.005021
274.016000	0.502445	0.005024
274.171000	0.502721	0.005027
274.326000	0.502947	0.005029
274.481000	0.503122	0.005031
274.635000	0.503235	0.005032
274.786000	0.503269	0.005033
274.937000	0.503228	0.005032
275.087000	0.503093	0.005031
275.236000	0.502891	0.005029
275.384000	0.502599	0.005026
275.531000	0.502215	0.005022
275.676000	0.501734	0.005017
275.825000	0.501174	0.005012
275.976000	0.500548	0.005005
276.132000	0.499868	0.004999
276.286000	0.499162	0.004992
276.438000	0.498463	0.004985
276.589000	0.497823	0.004978
276.737000	0.497248	0.004972
276.884000	0.496755	0.004968
277.027000	0.496335	0.004963
277.170000	0.495994	0.004960
277.310000	0.495726	0.004957
277.448000	0.495543	0.004955
277.587000	0.495375	0.004954
277.723000	0.495303	0.004953
277.855000	0.495293	0.004953
277.986000	0.495347	0.004953
278.116000	0.495436	0.004954
278.242000	0.495595	0.004956
278.370000	0.495794	0.004958
278.499000	0.496039	0.004960
278.633000	0.496338	0.004963
278.770000	0.496664	0.004967
278.908000	0.497036	0.004970
279.048000	0.497434	0.004974
279.186000	0.497862	0.004979
279.326000	0.498297	0.004983
279.463000	0.498731	0.004987
279.599000	0.499138	0.004991
279.735000	0.499510	0.004995
279.871000	0.499858	0.004999
280.006000	0.500158	0.005002
280.141000	0.500395	0.005004
280.275000	0.500564	0.005006
280.407000	0.500647	0.005006
280.539000	0.500647	0.005006
280.667000	0.500551	0.005006
280.797000	0.500373	0.005004
280.928000	0.500091	0.005001
281.062000	0.499718	0.004997
281.198000	0.499246	0.004992
281.333000	0.498702	0.004987
281.470000	0.498100	0.004981
281.608000	0.497450	0.004975
281.744000	0.496861	0.004969
281.881000	0.496320	0.004963
282.016000	0.495857	0.004959
282.152000	0.495460	0.004955
282.289000	0.495151	0.004952
282.428000	0.494922	0.004949
282.566000	0.494781	0.004948
282.704000	0.494738	0.004947
282.844000	0.494788	0.004948
282.983000	0.494909	0.004949
283.117000	0.495103	0.004951
283.252000	0.495345	0.004953
283.387000	0.495650	0.004957
283.519000	0.495996	0.004960
283.650000	0.496371	0.004964
283.776000	0.496770	0.004968
283.897000	0.497179	0.004972
284.010000	0.497567	0.004976
284.120000	0.497934	0.004979
284.229000	0.498288	0.004983
284.340000	0.498606	0.004986
284.450000	0.498895	0.004989
284.558000	0.499165	0.004992
284.668000	0.499415	0.004994
284.782000	0.499569	0.004996
284.898000	0.499652	0.004997
285.017000	0.499680	0.004997
285.136000	0.499641	0.004996
285.255000	0.499541	0.004995
285.374000	0.499377	0.004994
285.493000	0.499149	0.004991
285.611000	0.498866	0.004989
285.730000	0.498519	0.004985
285.848000	0.498143	0.004981
285.965000	0.497738	0.004977
286.083000	0.497307	0.004973
286.203000	0.496883	0.004969
286.322000	0.496476	0.004965
286.437000	0.496095	0.004961
286.551000	0.495761	0.004958
286.666000	0.495460	0.004955
286.784000	0.495241	0.004952
286.907000	0.495097	0.004951
287.031000	0.495026	0.004950
287.155000	0.495033	0.004950
287.282000	0.495110	0.004951
287.410000	0.495242	0.004952
287.542000	0.495417	0.004954
287.675000	0.495728	0.004957
287.808000	0.496003	0.004960
287.938000	0.496333	0.004963
288.060000	0.496692	0.004967
288.176000	0.497101	0.004971
288.291000	0.497534	0.004975
288.403000	0.497980	0.004980
288.515000	0.498431	0.004984
288.626000	0.498891	0.004989
288.735000	0.499333	0.004993
288.844000	0.499741	0.004997
288.952000	0.500142	0.005001
289.061000	0.500489	0.005005
289.168000	0.500771	0.005008
289.275000	0.500970	0.005010
289.380000	0.501092	0.005011
289.487000	0.501121	0.005011
289.595000	0.501064	0.005011
289.704000	0.500926	0.005009
289.813000	0.500698	0.005007
289.922000	0.500408	0.005004
290.031000	0.500091	0.005001
290.141000	0.499700	0.004997
290.248000	0.499289	0.004993
290.354000	0.498869	0.004989
290.458000	0.498498	0.004985
290.560000	0.498117	0.004981
290.661000	0.497788	0.004978
290.764000	0.497484	0.004975
290.866000	0.497212	0.004972
290.966000	0.496963	0.004970
291.065000	0.496727	0.004967
291.162000	0.496507	0.004965
291.258000	0.496294	0.004963
291.351000	0.496101	0.004961
291.440000	0.495941	0.004959
291.528000	0.495807	0.004958
291.617000	0.495716	0.004957
291.707000	0.495656	0.004957
291.796000	0.495627	0.004956
291.886000	0.495635	0.004956
291.977000	0.495673	0.004957
292.072000	0.495747	0.004957
292.173000	0.495859	0.004959
292.279000	0.496000	0.004960
292.386000	0.496197	0.004962
292.491000	0.496459	0.004965
292.597000	0.496774	0.004968
292.701000	0.497136	0.004971
292.806000	0.497534	0.004975
292.904000	0.498009	0.004980
292.998000	0.498457	0.004985
293.086000	0.498883	0.004989
293.172000	0.499359	0.004994
293.260000	0.499799	0.004998
293.344000	0.500210	0.005002
293.426000	0.500580	0.005006
293.509000	0.500902	0.005009
293.590000	0.501185	0.005012
293.671000	0.501415	0.005014
293.750000	0.501591	0.005016
293.829000	0.501708	0.005017
293.910000	0.501753	0.005018
293.990000	0.501730	0.005017
294.070000	0.501638	0.005016
294.151000	0.501489	0.005015
294.232000	0.501290	0.005013
294.310000	0.501042	0.005010
294.385000	0.500764	0.005008
294.456000	0.500461	0.005005
294.526000	0.500145	0.005001
294.594000	0.499845	0.004998
294.661000	0.499565	0.004996
294.728000	0.499304	0.004993
294.792000	0.499060	0.004991
294.853000	0.498849	0.004988
294.915000	0.498674	0.004987
294.979000	0.498543	0.004985
295.048000	0.498425	0.004984
295.116000	0.498418	0.004984
295.181000	0.498486	0.004985
295.245000	0.498617	0.004986
295.308000	0.498791	0.004988
295.370000	0.499029	0.004990
295.432000	0.499341	0.004993
295.495000	0.499711	0.004997
295.558000	0.500143	0.005001
295.621000	0.500612	0.005006
295.681000	0.501072	0.005011
295.739000	0.501528	0.005015
295.798000	0.501966	0.005020
295.855000	0.502325	0.005023
295.909000	0.502621	0.005026
295.961000	0.502848	0.005028
296.014000	0.502972	0.005030
296.067000	0.503029	0.005030
296.121000	0.503007	0.005030
296.175000	0.502930	0.005029
296.230000	0.502803	0.005028
296.288000	0.502633	0.005026
296.346000	0.502316	0.005023
296.404000	0.502092	0.005021
296.455000	0.501840	0.005018
296.495000	0.501626	0.005016
296.529000	0.501367	0.005014
296.555000	0.501081	0.005011
296.575000	0.500797	0.005008
296.592000	0.500505	0.005005
296.608000	0.500216	0.005002
296.629000	0.499944	0.004999
296.652000	0.499684	0.004997
296.680000	0.499422	0.004994
296.714000	0.499186	0.004992
296.749000	0.498979	0.004990
296.784000	0.498796	0.004988
296.816000	0.498640	0.004986
296.850000	0.498545	0.004985
296.881000	0.498528	0.004985
296.915000	0.498581	0.004986
296.946000	0.498720	0.004987
296.976000	0.498941	0.004989
297.010000	0.499235	0.004992
297.040000	0.499611	0.004996
297.071000	0.500015	0.005000
297.104000	0.500444	0.005004
297.140000	0.500860	0.005009
297.176000	0.501288	0.005013
297.216000	0.501674	0.005017
297.258000	0.501979	0.005020
297.297000	0.502298	0.005023
297.339000	0.502599	0.005026
297.385000	0.502876	0.005029
297.432000	0.503122	0.005031
297.479000	0.503343	0.005033
297.527000	0.503537	0.005035
297.575000	0.503703	0.005037
297.624000	0.503847	0.005038
297.673000	0.503968	0.005040
297.720000	0.504080	0.005041
297.766000	0.504166	0.005042
297.811000	0.504239	0.005042
297.856000	0.504285	0.005043
297.901000	0.504317	0.005043
297.947000	0.504317	0.005043
297.992000	0.504300	0.005043
298.035000	0.504215	0.005042
298.077000	0.504063	0.005041
298.117000	0.503855	0.005039
298.157000	0.503598	0.005036
298.196000	0.503044	0.005030
298.236000	0.502652	0.005027
298.273000	0.502329	0.005023
298.307000	0.502002	0.005020
298.338000	0.501652	0.005017
298.370000	0.501309	0.005013
298.403000	0.500969	0.005010
298.436000	0.500654	0.005007
298.469000	0.500359	0.005004
298.499000	0.500067	0.005001
298.528000	0.499792	0.004998
298.558000	0.499543	0.004995
298.588000	0.499345	0.004993
298.618000	0.499193	0.004992
298.653000	0.499115	0.004991
298.688000	0.499096	0.004991
298.724000	0.499129	0.004991
298.761000	0.499225	0.004992
298.799000	0.499373	0.004994
298.837000	0.499566	0.004996
298.874000	0.499787	0.004998
298.908000	0.500031	0.005000
298.939000	0.500275	0.005003
298.967000	0.500526	0.005005
298.993000	0.500765	0.005008
299.017000	0.501118	0.005011
299.044000	0.501321	0.005013
299.070000	0.501525	0.005015
299.103000	0.501707	0.005017
299.146000	0.501904	0.005019
299.196000	0.502011	0.005020
299.251000	0.502061	0.005021
299.310000	0.502073	0.005021
299.370000	0.502080	0.005021
299.433000	0.502066	0.005021
299.493000	0.502019	0.005020
299.552000	0.501962	0.005020
299.607000	0.501891	0.005019
299.654000	0.501818	0.005018
299.700000	0.501741	0.005017
299.745000	0.501663	0.005017
299.791000	0.501552	0.005016
299.837000	0.501462	0.005015
299.882000	0.501371	0.005014
299.926000	0.501283	0.005013
299.973000	0.501211	0.005012
300.022000	0.501139	0.005011
300.068000	0.501091	0.005011
300.116000	0.501074	0.005011
300.161000	0.501074	0.005011
300.204000	0.501001	0.005010
300.245000	0.501082	0.005011
300.284000	0.501164	0.005012
300.321000	0.501272	0.005013
300.355000	0.501343	0.005013
300.387000	0.501464	0.005015
300.417000	0.501608	0.005016
300.444000	0.501749	0.005017
300.469000	0.501908	0.005019
300.492000	0.502066	0.005021
300.515000	0.502213	0.005022
300.539000	0.502360	0.005024
300.558000	0.502479	0.005025
300.577000	0.502600	0.005026
300.598000	0.502728	0.005027
300.621000	0.502865	0.005029
300.644000	0.503014	0.005030
300.668000	0.503148	0.005031
300.695000	0.503247	0.005032
300.721000	0.503324	0.005033
300.748000	0.503367	0.005034
300.773000	0.503368	0.005034
300.802000	0.503308	0.005033
300.829000	0.503169	0.005032
300.858000	0.502979	0.005030
300.887000	0.502732	0.005027
300.916000	0.502480	0.005025
300.945000	0.502218	0.005022
300.971000	0.501963	0.005020
300.992000	0.501765	0.005018
301.008000	0.501519	0.005015
301.025000	0.501277	0.005013
301.044000	0.501051	0.005011
301.063000	0.500840	0.005008
301.084000	0.500646	0.005006
301.105000	0.500477	0.005005
301.122000	0.500330	0.005003
301.138000	0.500209	0.005002
301.152000	0.500108	0.005001
301.166000	0.500009	0.005000
301.179000	0.499949	0.004999
301.194000	0.499911	0.004999
301.208000	0.499901	0.004999
301.224000	0.499902	0.004999
301.241000	0.499922	0.004999
301.261000	0.499986	0.005000
301.281000	0.500095	0.005001
301.305000	0.500272	0.005003
301.329000	0.500492	0.005005
301.353000	0.500771	0.005008
301.375000	0.501318	0.005013
301.394000	0.501726	0.005017
301.413000	0.502146	0.005021
301.431000	0.502628	0.005026
301.446000	0.503023	0.005030
301.462000	0.503412	0.005034
301.479000	0.503770	0.005038
301.496000	0.504082	0.005041
301.514000	0.504356	0.005044
301.529000	0.504597	0.005046
301.543000	0.504804	0.005048
301.557000	0.504990	0.005050
301.570000	0.505131	0.005051
301.585000	0.505247	0.005052
301.602000	0.505326	0.005053
301.615000	0.505387	0.005054
301.623000	0.505426	0.005054
301.626000	0.505434	0.005054
301.628000	0.505431	0.005054
301.626000	0.505410	0.005054
301.615000	0.505387	0.005054
301.601000	0.505344	0.005053
301.586000	0.505287	0.005053
301.571000	0.505215	0.005052
301.553000	0.505142	0.005051
301.536000	0.504972	0.005050
301.523000	0.504898	0.005049
301.511000	0.504839	0.005048
301.501000	0.504770	0.005048
301.494000	0.504695	0.005047
301.490000	0.504632	0.005046
301.489000	0.504596	0.005046
301.490000	0.504571	0.005046
301.492000	0.504548	0.005045
301.496000	0.504521	0.005045
301.501000	0.504505	0.005045
301.507000	0.504477	0.005045
301.515000	0.504424	0.005044
301.525000	0.504335	0.005043
301.532000	0.504233	0.005042
301.540000	0.504110	0.005041
301.547000	0.503968	0.005040
301.556000	0.503808	0.005038
301.564000	0.503645	0.005036
301.573000	0.503466	0.005035
301.581000	0.503298	0.005033
301.591000	0.503120	0.005031
301.592000	0.502950	0.005030
301.589000	0.502773	0.005028
301.582000	0.502595	0.005026
301.573000	0.502574	0.005026
301.564000	0.502457	0.005025
301.553000	0.502354	0.005024
301.545000	0.502292	0.005023
301.541000	0.502268	0.005023
301.544000	0.502271	0.005023
301.549000	0.502303	0.005023
301.555000	0.502379	0.005024
301.563000	0.502490	0.005025
301.575000	0.502652	0.005027
301.588000	0.502846	0.005028
301.606000	0.503087	0.005031
301.625000	0.503404	0.005034
301.645000	0.503748	0.005037
301.664000	0.504116	0.005041
301.680000	0.504521	0.005045
301.694000	0.504925	0.005049
301.707000	0.505340	0.005053
301.719000	0.505753	0.005058
301.730000	0.506146	0.005061
301.739000	0.506504	0.005065
301.747000	0.506818	0.005068
301.749000	0.507101	0.005071
301.749000	0.507357	0.005074
301.750000	0.507686	0.005077
301.753000	0.507894	0.005079
301.758000	0.508047	0.005080
301.764000	0.508187	0.005082
301.771000	0.508281	0.005083
301.779000	0.508379	0.005084
301.787000	0.508450	0.005085
301.793000	0.508487	0.005085
301.797000	0.508495	0.005085
301.799000	0.508475	0.005085
301.803000	0.508433	0.005084
301.809000	0.508366	0.005084
301.815000	0.508281	0.005083
301.822000	0.508179	0.005082
301.830000	0.508066	0.005081
301.837000	0.507951	0.005080
301.846000	0.507817	0.005078
301.859000	0.507665	0.005077
301.877000	0.507524	0.005075
301.897000	0.507403	0.005074
301.920000	0.507296	0.005073
301.951000	0.507184	0.005072
301.986000	0.507079	0.005071
302.019000	0.506971	0.005070
302.052000	0.506852	0.005069
302.088000	0.506727	0.005067
302.123000	0.506653	0.005067
302.152000	0.506513	0.005065
302.179000	0.506356	0.005064
302.205000	0.506122	0.005061
302.228000	0.505921	0.005059
302.249000	0.505704	0.005057
302.269000	0.505479	0.005055
302.288000	0.505254	0.005053
302.308000	0.505028	0.005050
302.324000	0.504808	0.005048
302.336000	0.504599	0.005046
302.343000	0.504391	0.005044
302.345000	0.504223	0.005042
302.341000	0.504081	0.005041
302.334000	0.503953	0.005040
302.327000	0.503841	0.005038
302.317000	0.503753	0.005038
302.309000	0.503692	0.005037
302.300000	0.503644	0.005036
302.292000	0.503611	0.005036
302.289000	0.503604	0.005036
302.290000	0.503616	0.005036
302.298000	0.503655	0.005037
302.314000	0.503670	0.005037
302.335000	0.503764	0.005038
302.357000	0.503855	0.005039
302.377000	0.504020	0.005040
302.397000	0.504268	0.005043
302.420000	0.504533	0.005045
302.444000	0.504820	0.005048
302.467000	0.505129	0.005051
302.486000	0.505460	0.005055
302.501000	0.505788	0.005058
302.506000	0.506108	0.005061
302.504000	0.506417	0.005064
302.498000	0.506690	0.005067
302.493000	0.506924	0.005069
302.490000	0.507147	0.005071
302.485000	0.507337	0.005073
302.475000	0.507515	0.005075
302.463000	0.507664	0.005077
302.453000	0.507799	0.005078
302.445000	0.507923	0.005079
302.441000	0.508031	0.005080
302.438000	0.508131	0.005081
302.440000	0.508214	0.005082
302.443000	0.508299	0.005083
302.451000	0.508367	0.005084
302.462000	0.508361	0.005084
302.473000	0.508419	0.005084
302.485000	0.508452	0.005085
302.496000	0.508502	0.005085
302.504000	0.508529	0.005085
302.510000	0.508524	0.005085
302.516000	0.508500	0.005085
302.521000	0.508413	0.005084
302.529000	0.508306	0.005083
302.539000	0.508157	0.005082
302.548000	0.507988	0.005080
302.555000	0.507792	0.005078
302.561000	0.507605	0.005076
302.566000	0.507400	0.005074
302.571000	0.507207	0.005072
302.577000	0.507015	0.005070
302.583000	0.506812	0.005068
302.592000	0.506580	0.005066
302.602000	0.506335	0.005063
302.615000	0.506067	0.005061
302.628000	0.505783	0.005058
302.642000	0.505484	0.005055
302.655000	0.505187	0.005052
302.669000	0.504885	0.005049
302.687000	0.504593	0.005046
302.706000	0.504334	0.005043
302.725000	0.503974	0.005040
302.741000	0.503749	0.005037
302.754000	0.503585	0.005036
302.767000	0.503406	0.005034
302.777000	0.503266	0.005033
302.785000	0.503115	0.005031
302.792000	0.502975	0.005030
302.798000	0.502854	0.005029
302.802000	0.502754	0.005028
302.806000	0.502668	0.005027
302.810000	0.502605	0.005026
302.818000	0.502568	0.005026
302.833000	0.502543	0.005025
302.853000	0.502548	0.005025
302.880000	0.502586	0.005026
302.910000	0.502693	0.005027
302.941000	0.502886	0.005029
302.975000	0.503172	0.005032
303.006000	0.503542	0.005035
303.038000	0.503977	0.005040
303.068000	0.504489	0.005045
303.091000	0.505046	0.005050
303.113000	0.505629	0.005056
303.133000	0.506168	0.005062
303.150000	0.506725	0.005067
303.165000	0.507272	0.005073
303.179000	0.507756	0.005078
303.194000	0.508198	0.005082
303.210000	0.508591	0.005086
303.227000	0.508938	0.005089
303.245000	0.509208	0.005092
303.262000	0.509405	0.005094
303.279000	0.509527	0.005095
303.294000	0.509565	0.005096
303.315000	0.509535	0.005095
303.341000	0.509436	0.005094
303.369000	0.509267	0.005093
303.397000	0.509042	0.005090
303.421000	0.508758	0.005088
303.446000	0.508444	0.005084
303.475000	0.508112	0.005081
303.504000	0.507770	0.005078
303.527000	0.507426	0.005074
303.548000	0.507094	0.005071
