Temperature	Strain_p	Strain
308.441000	0.153653	0.001537
308.443000	0.153653	0.001537
308.442000	0.153608	0.001536
308.440000	0.153522	0.001535
308.435000	0.153385	0.001534
308.423000	0.153213	0.001532
308.405000	0.153007	0.001530
308.376000	0.152791	0.001528
308.343000	0.152612	0.001526
308.312000	0.152360	0.001524
308.286000	0.152162	0.001522
308.264000	0.151981	0.001520
308.245000	0.151836	0.001518
308.231000	0.151714	0.001517
308.221000	0.151659	0.001517
308.212000	0.151611	0.001516
308.204000	0.151583	0.001516
308.197000	0.151570	0.001516
308.190000	0.151564	0.001516
308.181000	0.151562	0.001516
308.170000	0.151542	0.001515
308.157000	0.151520	0.001515
308.143000	0.151488	0.001515
308.130000	0.151460	0.001515
308.115000	0.151451	0.001515
308.097000	0.151468	0.001515
308.077000	0.151506	0.001515
308.055000	0.151606	0.001516
308.033000	0.151692	0.001517
308.012000	0.151821	0.001518
307.995000	0.151971	0.001520
307.978000	0.152138	0.001521
307.963000	0.152322	0.001523
307.947000	0.152526	0.001525
307.927000	0.152738	0.001527
307.898000	0.152964	0.001530
307.867000	0.153192	0.001532
307.829000	0.153390	0.001534
307.789000	0.153545	0.001535
307.747000	0.153625	0.001536
307.700000	0.153621	0.001536
307.651000	0.153521	0.001535
307.609000	0.153316	0.001533
307.570000	0.153010	0.001530
307.532000	0.152628	0.001526
307.492000	0.152180	0.001522
307.452000	0.151701	0.001517
307.410000	0.151116	0.001511
307.368000	0.150580	0.001506
307.325000	0.150044	0.001500
307.285000	0.149552	0.001496
307.247000	0.149190	0.001492
307.210000	0.148793	0.001488
307.168000	0.148422	0.001484
307.121000	0.148097	0.001481
307.077000	0.147852	0.001479
307.036000	0.147662	0.001477
306.997000	0.147536	0.001475
306.960000	0.147481	0.001475
306.924000	0.147475	0.001475
306.889000	0.147517	0.001475
306.854000	0.147608	0.001476
306.820000	0.147716	0.001477
306.782000	0.147829	0.001478
306.741000	0.147923	0.001479
306.698000	0.147995	0.001480
306.653000	0.147818	0.001478
306.605000	0.147818	0.001478
306.558000	0.147773	0.001478
306.511000	0.147702	0.001477
306.462000	0.147634	0.001476
306.410000	0.147558	0.001476
306.358000	0.147474	0.001475
306.307000	0.147399	0.001474
306.254000	0.147301	0.001473
306.203000	0.147217	0.001472
306.148000	0.147096	0.001471
306.092000	0.146963	0.001470
306.034000	0.146838	0.001468
305.980000	0.146730	0.001467
305.932000	0.146611	0.001466
305.891000	0.146519	0.001465
305.857000	0.146421	0.001464
305.827000	0.146338	0.001463
305.793000	0.146250	0.001463
305.755000	0.146258	0.001463
305.710000	0.146178	0.001462
305.655000	0.146159	0.001462
305.593000	0.146163	0.001462
305.525000	0.146240	0.001462
305.454000	0.146378	0.001464
305.379000	0.146518	0.001465
305.298000	0.146635	0.001466
305.217000	0.146752	0.001468
305.133000	0.146884	0.001469
305.048000	0.146950	0.001470
304.961000	0.146995	0.001470
304.876000	0.147030	0.001470
304.796000	0.147033	0.001470
304.717000	0.146991	0.001470
304.641000	0.146894	0.001469
304.564000	0.146752	0.001468
304.489000	0.146557	0.001466
304.414000	0.146322	0.001463
304.342000	0.145958	0.001460
304.268000	0.145749	0.001457
304.196000	0.145561	0.001456
304.125000	0.145408	0.001454
304.054000	0.145307	0.001453
303.984000	0.145304	0.001453
303.914000	0.145265	0.001453
303.840000	0.145252	0.001453
303.768000	0.145253	0.001453
303.695000	0.145246	0.001452
303.621000	0.145193	0.001452
303.551000	0.145154	0.001452
303.487000	0.145101	0.001451
303.421000	0.145039	0.001450
303.351000	0.145002	0.001450
303.275000	0.144978	0.001450
303.190000	0.144988	0.001450
303.096000	0.145036	0.001450
302.997000	0.145110	0.001451
302.896000	0.144958	0.001450
302.798000	0.145075	0.001451
302.701000	0.145165	0.001452
302.606000	0.145274	0.001453
302.512000	0.145367	0.001454
302.424000	0.145495	0.001455
302.338000	0.145583	0.001456
302.252000	0.145633	0.001456
302.164000	0.145618	0.001456
302.075000	0.145544	0.001455
301.982000	0.145396	0.001454
301.886000	0.145196	0.001452
301.787000	0.144931	0.001449
301.688000	0.144610	0.001446
301.585000	0.144251	0.001443
301.482000	0.143878	0.001439
301.381000	0.143541	0.001435
301.279000	0.143232	0.001432
301.180000	0.142982	0.001430
301.080000	0.142709	0.001427
300.978000	0.142624	0.001426
300.873000	0.142571	0.001426
300.770000	0.142561	0.001426
300.670000	0.142572	0.001426
300.569000	0.142700	0.001427
300.467000	0.142766	0.001428
300.367000	0.142832	0.001428
300.270000	0.142879	0.001429
300.173000	0.142901	0.001429
300.078000	0.142859	0.001429
299.983000	0.142781	0.001428
299.886000	0.142679	0.001427
299.788000	0.142551	0.001426
299.690000	0.142422	0.001424
299.594000	0.142262	0.001423
299.497000	0.142108	0.001421
299.400000	0.141968	0.001420
299.302000	0.141823	0.001418
299.207000	0.141685	0.001417
299.117000	0.141589	0.001416
299.031000	0.141505	0.001415
298.948000	0.141454	0.001415
298.867000	0.141444	0.001414
298.791000	0.141722	0.001417
298.720000	0.141807	0.001418
298.650000	0.141930	0.001419
298.581000	0.142060	0.001421
298.514000	0.142158	0.001422
298.449000	0.142216	0.001422
298.379000	0.142252	0.001423
298.305000	0.142237	0.001422
298.228000	0.142184	0.001422
298.148000	0.142101	0.001421
298.064000	0.141993	0.001420
297.978000	0.141874	0.001419
297.887000	0.141737	0.001417
297.796000	0.141536	0.001415
297.704000	0.141417	0.001414
297.609000	0.141275	0.001413
297.509000	0.141200	0.001412
297.411000	0.141154	0.001412
297.311000	0.141154	0.001412
297.212000	0.141102	0.001411
297.115000	0.141205	0.001412
297.019000	0.141275	0.001413
296.928000	0.141351	0.001414
296.839000	0.141368	0.001414
296.751000	0.141326	0.001413
296.663000	0.141244	0.001412
296.576000	0.141139	0.001411
296.491000	0.141008	0.001410
296.410000	0.140844	0.001408
296.334000	0.140651	0.001407
296.263000	0.140448	0.001404
296.195000	0.140227	0.001402
296.127000	0.140006	0.001400
296.054000	0.139816	0.001398
295.977000	0.139697	0.001397
295.895000	0.139599	0.001396
295.811000	0.139564	0.001396
295.726000	0.139596	0.001396
295.639000	0.139736	0.001397
295.548000	0.139797	0.001398
295.455000	0.139878	0.001399
295.363000	0.139941	0.001399
295.273000	0.139965	0.001400
295.184000	0.139945	0.001399
295.094000	0.139909	0.001399
295.004000	0.139852	0.001399
294.915000	0.139780	0.001398
294.828000	0.139720	0.001397
294.740000	0.139664	0.001397
294.652000	0.139619	0.001396
294.559000	0.139603	0.001396
294.467000	0.139637	0.001396
294.376000	0.139666	0.001397
294.287000	0.139711	0.001397
294.196000	0.139732	0.001397
294.105000	0.139736	0.001397
294.013000	0.139721	0.001397
293.920000	0.139928	0.001399
293.825000	0.139853	0.001399
293.728000	0.139774	0.001398
293.629000	0.139644	0.001396
293.531000	0.139470	0.001395
293.432000	0.139228	0.001392
293.332000	0.138939	0.001389
293.230000	0.138617	0.001386
293.126000	0.138276	0.001383
293.018000	0.137933	0.001379
292.906000	0.137595	0.001376
292.792000	0.137257	0.001373
292.679000	0.136947	0.001369
292.567000	0.136668	0.001367
292.450000	0.136428	0.001364
292.336000	0.136226	0.001362
292.221000	0.136070	0.001361
292.106000	0.135996	0.001360
291.984000	0.135987	0.001360
291.861000	0.136113	0.001361
291.737000	0.136207	0.001362
291.617000	0.136376	0.001364
291.497000	0.136576	0.001366
291.377000	0.136812	0.001368
291.258000	0.137038	0.001370
291.138000	0.137248	0.001372
291.019000	0.137447	0.001374
290.901000	0.137613	0.001376
290.784000	0.137758	0.001378
290.668000	0.137876	0.001379
290.556000	0.137959	0.001380
290.441000	0.137984	0.001380
290.325000	0.137958	0.001380
290.210000	0.137850	0.001379
290.097000	0.137668	0.001377
289.982000	0.137466	0.001375
289.868000	0.137199	0.001372
289.756000	0.136911	0.001369
289.647000	0.136617	0.001366
289.538000	0.136272	0.001363
289.428000	0.135902	0.001359
289.316000	0.135525	0.001355
289.199000	0.135146	0.001351
289.080000	0.134758	0.001348
288.958000	0.134395	0.001344
288.835000	0.134059	0.001341
288.710000	0.133776	0.001338
288.586000	0.133562	0.001336
288.460000	0.133426	0.001334
288.332000	0.133358	0.001334
288.205000	0.133347	0.001333
288.079000	0.133378	0.001334
287.950000	0.133424	0.001334
287.822000	0.133516	0.001335
287.694000	0.133633	0.001336
287.567000	0.133767	0.001338
287.440000	0.133974	0.001340
287.315000	0.134142	0.001341
287.191000	0.134315	0.001343
287.063000	0.134429	0.001344
286.932000	0.134501	0.001345
286.798000	0.134516	0.001345
286.663000	0.134441	0.001344
286.530000	0.134263	0.001343
286.398000	0.134013	0.001340
286.267000	0.133695	0.001337
286.138000	0.133310	0.001333
286.010000	0.132892	0.001329
285.886000	0.132445	0.001324
285.761000	0.131982	0.001320
285.638000	0.131455	0.001315
285.515000	0.130968	0.001310
285.395000	0.130540	0.001305
285.275000	0.130157	0.001302
285.156000	0.129844	0.001298
285.038000	0.129621	0.001296
284.920000	0.129480	0.001295
284.805000	0.129406	0.001294
284.690000	0.129426	0.001294
284.573000	0.129511	0.001295
284.454000	0.129633	0.001296
284.337000	0.129830	0.001298
284.222000	0.130001	0.001300
284.110000	0.130164	0.001302
284.000000	0.130328	0.001303
283.892000	0.130491	0.001305
283.784000	0.130646	0.001306
283.674000	0.130804	0.001308
283.565000	0.130948	0.001309
283.456000	0.131063	0.001311
283.347000	0.131144	0.001311
283.237000	0.131164	0.001312
283.124000	0.131141	0.001311
283.011000	0.131092	0.001311
282.895000	0.130981	0.001310
282.776000	0.130846	0.001308
282.656000	0.130677	0.001307
282.535000	0.130490	0.001305
282.415000	0.130254	0.001303
282.296000	0.129987	0.001300
282.180000	0.129690	0.001297
282.063000	0.129363	0.001294
281.945000	0.129036	0.001290
281.828000	0.128734	0.001287
281.709000	0.128456	0.001285
281.589000	0.128208	0.001282
281.469000	0.128005	0.001280
281.349000	0.127870	0.001279
281.231000	0.127779	0.001278
281.113000	0.127671	0.001277
280.994000	0.127667	0.001277
280.873000	0.127693	0.001277
280.748000	0.127757	0.001278
280.621000	0.127860	0.001279
280.496000	0.127980	0.001280
280.371000	0.128115	0.001281
280.248000	0.128247	0.001282
280.130000	0.128326	0.001283
280.014000	0.128360	0.001284
279.899000	0.128346	0.001283
279.787000	0.128225	0.001282
279.678000	0.128017	0.001280
279.569000	0.127745	0.001277
279.461000	0.127395	0.001274
279.356000	0.127007	0.001270
279.250000	0.126599	0.001266
279.142000	0.126171	0.001262
279.038000	0.125646	0.001256
278.935000	0.125257	0.001253
278.834000	0.124914	0.001249
278.734000	0.124639	0.001246
278.634000	0.124468	0.001245
278.534000	0.124363	0.001244
278.431000	0.124383	0.001244
278.328000	0.124510	0.001245
278.227000	0.124668	0.001247
278.128000	0.124865	0.001249
278.028000	0.125078	0.001251
277.923000	0.125275	0.001253
277.816000	0.125477	0.001255
277.704000	0.125694	0.001257
277.589000	0.125879	0.001259
277.474000	0.126014	0.001260
277.358000	0.126098	0.001261
277.240000	0.126130	0.001261
277.120000	0.126085	0.001261
277.000000	0.126016	0.001260
276.875000	0.125862	0.001259
276.747000	0.125668	0.001257
276.620000	0.125451	0.001255
276.492000	0.125226	0.001252
276.365000	0.125016	0.001250
276.237000	0.124832	0.001248
276.108000	0.124635	0.001246
275.979000	0.124434	0.001244
275.848000	0.124207	0.001242
275.713000	0.123960	0.001240
275.573000	0.123682	0.001237
275.428000	0.123400	0.001234
275.281000	0.123097	0.001231
275.129000	0.122774	0.001228
274.976000	0.122464	0.001225
274.821000	0.122192	0.001222
274.666000	0.121939	0.001219
274.509000	0.121715	0.001217
274.355000	0.121528	0.001215
274.201000	0.121410	0.001214
274.054000	0.121348	0.001213
273.909000	0.121371	0.001214
273.769000	0.121490	0.001215
273.631000	0.121761	0.001218
273.494000	0.122066	0.001221
273.359000	0.122381	0.001224
273.225000	0.122689	0.001227
273.094000	0.122959	0.001230
272.964000	0.123181	0.001232
272.836000	0.123339	0.001233
272.710000	0.123412	0.001234
272.585000	0.123427	0.001234
272.460000	0.123363	0.001234
272.335000	0.123227	0.001232
272.213000	0.123043	0.001230
272.092000	0.122789	0.001228
271.970000	0.122491	0.001225
271.848000	0.122155	0.001222
271.725000	0.121818	0.001218
271.606000	0.121462	0.001215
271.488000	0.121104	0.001211
271.370000	0.120772	0.001208
271.250000	0.120482	0.001205
271.127000	0.120203	0.001202
271.002000	0.119984	0.001200
270.873000	0.119775	0.001198
270.744000	0.119566	0.001196
270.613000	0.119383	0.001194
270.481000	0.119213	0.001192
270.350000	0.119065	0.001191
270.218000	0.118943	0.001189
270.086000	0.118870	0.001189
269.955000	0.118825	0.001188
269.823000	0.118836	0.001188
269.690000	0.118860	0.001189
269.555000	0.118888	0.001189
269.418000	0.118948	0.001189
269.282000	0.118974	0.001190
269.145000	0.118989	0.001190
269.008000	0.119023	0.001190
268.874000	0.119060	0.001191
268.743000	0.119069	0.001191
268.614000	0.119126	0.001191
268.487000	0.119091	0.001191
268.360000	0.119048	0.001190
268.235000	0.118956	0.001190
268.113000	0.118832	0.001188
267.993000	0.118680	0.001187
267.875000	0.118496	0.001185
267.755000	0.118282	0.001183
267.634000	0.118053	0.001181
267.514000	0.117819	0.001178
267.394000	0.117571	0.001176
267.274000	0.117330	0.001173
267.150000	0.117097	0.001171
267.027000	0.116836	0.001168
266.907000	0.116618	0.001166
266.788000	0.116432	0.001164
266.670000	0.116280	0.001163
266.551000	0.116177	0.001162
266.433000	0.116211	0.001162
266.317000	0.116130	0.001161
266.201000	0.116032	0.001160
266.088000	0.115898	0.001159
265.976000	0.115730	0.001157
265.864000	0.115529	0.001155
265.753000	0.115269	0.001153
265.644000	0.114995	0.001150
265.539000	0.114695	0.001147
265.438000	0.114410	0.001144
265.340000	0.114143	0.001141
265.241000	0.113899	0.001139
265.143000	0.113674	0.001137
265.043000	0.113485	0.001135
264.942000	0.113365	0.001134
264.839000	0.113268	0.001133
264.739000	0.113229	0.001132
264.639000	0.113254	0.001133
264.540000	0.113348	0.001133
264.439000	0.113465	0.001135
264.335000	0.113663	0.001137
264.228000	0.113880	0.001139
264.116000	0.114098	0.001141
264.001000	0.114297	0.001143
263.884000	0.114459	0.001145
263.767000	0.114579	0.001146
263.650000	0.114651	0.001147
263.535000	0.114664	0.001147
263.418000	0.114636	0.001146
263.298000	0.114550	0.001146
263.172000	0.114418	0.001144
263.043000	0.114258	0.001143
262.911000	0.114077	0.001141
262.783000	0.113875	0.001139
262.654000	0.113714	0.001137
262.526000	0.113571	0.001136
262.402000	0.113454	0.001135
262.277000	0.113386	0.001134
262.154000	0.113373	0.001134
262.032000	0.113354	0.001134
261.913000	0.113344	0.001133
261.793000	0.113334	0.001133
261.675000	0.113289	0.001133
261.555000	0.113192	0.001132
261.436000	0.113058	0.001131
261.319000	0.112889	0.001129
261.203000	0.112694	0.001127
261.089000	0.112492	0.001125
260.977000	0.112276	0.001123
260.864000	0.112052	0.001121
260.747000	0.111831	0.001118
260.623000	0.111584	0.001116
260.493000	0.111383	0.001114
260.359000	0.111146	0.001111
260.220000	0.110938	0.001109
260.076000	0.110764	0.001108
259.923000	0.110639	0.001106
259.765000	0.110554	0.001106
259.605000	0.110482	0.001105
259.446000	0.110433	0.001104
259.289000	0.110376	0.001104
259.139000	0.110300	0.001103
258.989000	0.110186	0.001102
258.841000	0.110071	0.001101
258.696000	0.109939	0.001099
258.554000	0.109796	0.001098
258.414000	0.109653	0.001097
258.275000	0.109509	0.001095
258.141000	0.109371	0.001094
258.010000	0.109221	0.001092
257.882000	0.109087	0.001091
257.755000	0.108960	0.001090
257.627000	0.108870	0.001089
257.499000	0.108770	0.001088
257.372000	0.108685	0.001087
257.244000	0.108633	0.001086
257.116000	0.108543	0.001085
256.986000	0.108516	0.001085
256.856000	0.108481	0.001085
256.727000	0.108414	0.001084
256.604000	0.108290	0.001083
256.485000	0.108179	0.001082
256.368000	0.108037	0.001080
256.252000	0.107886	0.001079
256.135000	0.107724	0.001077
256.016000	0.107573	0.001076
255.896000	0.107412	0.001074
255.774000	0.107255	0.001073
255.650000	0.107189	0.001072
255.524000	0.107037	0.001070
255.396000	0.106923	0.001069
255.261000	0.106824	0.001068
255.124000	0.106770	0.001068
254.984000	0.106747	0.001067
254.840000	0.106765	0.001068
254.691000	0.106837	0.001068
254.543000	0.106884	0.001069
254.396000	0.106904	0.001069
254.251000	0.106893	0.001069
254.104000	0.106842	0.001068
253.953000	0.106719	0.001067
253.803000	0.106613	0.001066
253.652000	0.106509	0.001065
253.504000	0.106407	0.001064
253.357000	0.106293	0.001063
253.216000	0.106204	0.001062
253.077000	0.106119	0.001061
252.940000	0.106059	0.001061
252.800000	0.105986	0.001060
252.659000	0.105909	0.001059
252.514000	0.105863	0.001059
252.366000	0.105836	0.001058
252.219000	0.105858	0.001059
252.075000	0.105864	0.001059
251.933000	0.105844	0.001058
251.792000	0.105840	0.001058
251.654000	0.105791	0.001058
251.516000	0.105695	0.001057
251.379000	0.105553	0.001056
251.240000	0.105345	0.001053
251.099000	0.105080	0.001051
250.956000	0.104778	0.001048
250.811000	0.104440	0.001044
250.667000	0.104089	0.001041
250.524000	0.103737	0.001037
250.385000	0.103403	0.001034
250.254000	0.102997	0.001030
250.125000	0.102696	0.001027
249.998000	0.102457	0.001025
249.876000	0.102274	0.001023
249.758000	0.102177	0.001022
249.647000	0.102214	0.001022
249.542000	0.102273	0.001023
249.438000	0.102417	0.001024
249.331000	0.102561	0.001026
249.219000	0.102706	0.001027
249.103000	0.102841	0.001028
248.984000	0.102945	0.001029
248.867000	0.102990	0.001030
248.751000	0.103012	0.001030
248.630000	0.102977	0.001030
248.505000	0.102871	0.001029
248.377000	0.102711	0.001027
248.250000	0.102498	0.001025
248.123000	0.102243	0.001022
247.996000	0.101803	0.001018
247.868000	0.101488	0.001015
247.737000	0.101163	0.001012
247.602000	0.100843	0.001008
247.466000	0.100545	0.001005
247.331000	0.100287	0.001003
247.197000	0.100057	0.001001
247.065000	0.099821	0.000998
246.931000	0.099647	0.000996
246.798000	0.099470	0.000995
246.661000	0.099291	0.000993
246.522000	0.099088	0.000991
246.383000	0.098869	0.000989
246.246000	0.098643	0.000986
246.111000	0.098415	0.000984
245.978000	0.098191	0.000982
245.849000	0.097984	0.000980
245.719000	0.097787	0.000978
245.585000	0.097601	0.000976
245.451000	0.097310	0.000973
245.320000	0.097188	0.000972
245.192000	0.097119	0.000971
245.066000	0.097096	0.000971
244.942000	0.097126	0.000971
244.821000	0.097219	0.000972
244.705000	0.097347	0.000973
244.590000	0.097506	0.000975
244.473000	0.097633	0.000976
244.357000	0.097761	0.000978
244.243000	0.097879	0.000979
244.133000	0.097955	0.000980
244.023000	0.098010	0.000980
243.914000	0.098012	0.000980
243.804000	0.097987	0.000980
243.694000	0.097926	0.000979
243.582000	0.097858	0.000979
243.469000	0.097748	0.000977
243.355000	0.097633	0.000976
243.240000	0.097490	0.000975
243.127000	0.097368	0.000974
243.015000	0.097218	0.000972
242.902000	0.097079	0.000971
242.786000	0.096968	0.000970
242.665000	0.096780	0.000968
242.540000	0.096731	0.000967
242.413000	0.096661	0.000967
242.283000	0.096585	0.000966
242.151000	0.096488	0.000965
242.017000	0.096354	0.000964
241.885000	0.096196	0.000962
241.753000	0.096021	0.000960
241.621000	0.095845	0.000958
241.491000	0.095683	0.000957
241.363000	0.095533	0.000955
241.236000	0.095382	0.000954
241.110000	0.095355	0.000954
240.984000	0.095329	0.000953
240.859000	0.095344	0.000953
240.734000	0.095416	0.000954
240.605000	0.095540	0.000955
240.477000	0.095677	0.000957
240.349000	0.095807	0.000958
240.221000	0.095894	0.000959
240.093000	0.095958	0.000960
239.968000	0.095986	0.000960
239.844000	0.095929	0.000959
239.717000	0.095792	0.000958
239.593000	0.095539	0.000955
239.463000	0.095229	0.000952
239.328000	0.094870	0.000949
239.196000	0.094478	0.000945
239.065000	0.094066	0.000941
238.932000	0.093637	0.000936
238.797000	0.093203	0.000932
238.659000	0.092804	0.000928
238.519000	0.092432	0.000924
238.380000	0.092099	0.000921
238.242000	0.091821	0.000918
238.107000	0.091585	0.000916
237.970000	0.091409	0.000914
237.833000	0.091293	0.000913
237.697000	0.091326	0.000913
237.563000	0.091355	0.000914
237.433000	0.091407	0.000914
237.304000	0.091513	0.000915
237.180000	0.091614	0.000916
237.057000	0.091657	0.000917
236.935000	0.091727	0.000917
236.809000	0.091777	0.000918
236.683000	0.091795	0.000918
236.555000	0.091787	0.000918
236.427000	0.091745	0.000917
236.303000	0.091500	0.000915
236.184000	0.091427	0.000914
236.067000	0.091300	0.000913
235.947000	0.091174	0.000912
235.822000	0.091057	0.000911
235.693000	0.090962	0.000910
235.558000	0.090888	0.000909
235.423000	0.090835	0.000908
235.289000	0.090938	0.000909
235.157000	0.090906	0.000909
235.026000	0.090861	0.000909
234.894000	0.090797	0.000908
234.762000	0.090695	0.000907
234.630000	0.090543	0.000905
234.497000	0.090367	0.000904
234.363000	0.090172	0.000902
234.229000	0.089957	0.000900
234.096000	0.089741	0.000897
233.967000	0.089541	0.000895
233.838000	0.089368	0.000894
233.711000	0.089322	0.000893
233.584000	0.089215	0.000892
233.456000	0.089189	0.000892
233.329000	0.089237	0.000892
233.203000	0.089333	0.000893
233.078000	0.089481	0.000895
232.955000	0.089650	0.000897
232.834000	0.089965	0.000900
232.714000	0.090154	0.000902
232.592000	0.090290	0.000903
232.469000	0.090375	0.000904
232.349000	0.090376	0.000904
232.229000	0.090285	0.000903
232.113000	0.090102	0.000901
231.997000	0.089844	0.000898
231.881000	0.089531	0.000895
231.761000	0.089161	0.000892
231.640000	0.088748	0.000887
231.518000	0.088218	0.000882
231.395000	0.087779	0.000878
231.273000	0.087351	0.000874
231.153000	0.086950	0.000870
231.034000	0.086596	0.000866
230.912000	0.086295	0.000863
230.788000	0.086052	0.000861
230.664000	0.085863	0.000859
230.540000	0.085751	0.000858
230.413000	0.085665	0.000857
230.285000	0.085661	0.000857
230.157000	0.085687	0.000857
230.025000	0.085721	0.000857
229.895000	0.085762	0.000858
229.765000	0.085770	0.000858
229.638000	0.085801	0.000858
229.511000	0.085815	0.000858
229.385000	0.085826	0.000858
229.258000	0.085863	0.000859
229.135000	0.085933	0.000859
229.012000	0.085993	0.000860
228.889000	0.086060	0.000861
228.767000	0.086115	0.000861
228.645000	0.086147	0.000861
228.523000	0.086166	0.000862
228.398000	0.086093	0.000861
228.271000	0.085967	0.000860
228.141000	0.085778	0.000858
228.009000	0.085499	0.000855
227.878000	0.085135	0.000851
227.747000	0.084720	0.000847
227.614000	0.084275	0.000843
227.480000	0.083828	0.000838
227.347000	0.083402	0.000834
227.214000	0.083007	0.000830
227.079000	0.082662	0.000827
226.945000	0.082389	0.000824
226.809000	0.082185	0.000822
226.672000	0.082066	0.000821
226.534000	0.081987	0.000820
226.394000	0.081978	0.000820
226.260000	0.082016	0.000820
226.129000	0.082087	0.000821
226.005000	0.082191	0.000822
225.881000	0.082283	0.000823
225.756000	0.082372	0.000824
225.631000	0.082439	0.000824
225.508000	0.082480	0.000825
225.384000	0.082508	0.000825
225.258000	0.082522	0.000825
225.130000	0.082480	0.000825
225.003000	0.082397	0.000824
224.877000	0.082269	0.000823
224.750000	0.082154	0.000822
224.622000	0.082017	0.000820
224.492000	0.081861	0.000819
224.363000	0.081697	0.000817
224.234000	0.081539	0.000815
224.104000	0.081386	0.000814
223.975000	0.081243	0.000812
223.847000	0.081111	0.000811
223.719000	0.080989	0.000810
223.589000	0.081030	0.000810
223.455000	0.080867	0.000809
223.319000	0.080731	0.000807
223.182000	0.080573	0.000806
223.046000	0.080391	0.000804
222.913000	0.080179	0.000802
222.779000	0.079824	0.000798
222.644000	0.079574	0.000796
222.507000	0.079321	0.000793
222.369000	0.079079	0.000791
222.227000	0.078874	0.000789
222.087000	0.078684	0.000787
221.946000	0.078551	0.000786
221.804000	0.078442	0.000784
221.661000	0.078352	0.000784
221.518000	0.078235	0.000782
221.373000	0.078168	0.000782
221.224000	0.078109	0.000781
221.074000	0.078051	0.000781
220.923000	0.078001	0.000780
220.769000	0.077869	0.000779
220.612000	0.077834	0.000778
220.455000	0.077753	0.000778
220.300000	0.077644	0.000776
220.149000	0.077522	0.000775
220.002000	0.077390	0.000774
219.859000	0.077279	0.000773
219.719000	0.077173	0.000772
219.580000	0.077085	0.000771
219.443000	0.077024	0.000770
219.309000	0.076956	0.000770
219.178000	0.076901	0.000769
219.048000	0.076848	0.000768
218.919000	0.076794	0.000768
218.790000	0.076731	0.000767
218.658000	0.076668	0.000767
218.523000	0.076609	0.000766
218.388000	0.076542	0.000765
218.253000	0.076558	0.000766
218.118000	0.076428	0.000764
217.984000	0.076325	0.000763
217.849000	0.076205	0.000762
217.714000	0.076090	0.000761
217.576000	0.075923	0.000759
217.438000	0.075778	0.000758
217.300000	0.075619	0.000756
217.162000	0.075447	0.000754
217.025000	0.075262	0.000753
216.890000	0.075076	0.000751
216.755000	0.074885	0.000749
216.620000	0.074701	0.000747
216.486000	0.074542	0.000745
216.352000	0.074404	0.000744
216.216000	0.074269	0.000743
216.080000	0.074160	0.000742
215.943000	0.073893	0.000739
215.804000	0.073794	0.000738
215.661000	0.073624	0.000736
215.516000	0.073484	0.000735
215.372000	0.073346	0.000733
215.228000	0.073231	0.000732
215.083000	0.073127	0.000731
214.939000	0.073055	0.000731
214.796000	0.072985	0.000730
214.653000	0.072928	0.000729
214.511000	0.072869	0.000729
214.368000	0.072814	0.000728
214.223000	0.072765	0.000728
214.077000	0.072701	0.000727
213.931000	0.072618	0.000726
213.787000	0.072504	0.000725
213.644000	0.072365	0.000724
213.499000	0.072188	0.000722
213.353000	0.072007	0.000720
213.206000	0.071718	0.000717
213.061000	0.071435	0.000714
212.920000	0.071124	0.000711
212.781000	0.070846	0.000708
212.642000	0.070580	0.000706
212.503000	0.070344	0.000703
212.363000	0.070137	0.000701
212.224000	0.069965	0.000700
212.085000	0.069820	0.000698
211.947000	0.069701	0.000697
211.812000	0.069597	0.000696
211.680000	0.069520	0.000695
211.547000	0.069447	0.000694
211.417000	0.069363	0.000694
211.287000	0.069301	0.000693
211.158000	0.069245	0.000692
211.030000	0.069177	0.000692
210.903000	0.069062	0.000691
210.780000	0.068919	0.000689
210.658000	0.068786	0.000688
210.541000	0.068586	0.000686
210.425000	0.068369	0.000684
210.313000	0.068121	0.000681
210.202000	0.067905	0.000679
210.091000	0.067658	0.000677
209.977000	0.067437	0.000674
209.860000	0.067260	0.000673
209.739000	0.067127	0.000671
209.616000	0.067044	0.000670
209.490000	0.067006	0.000670
209.364000	0.067015	0.000670
209.235000	0.067068	0.000671
209.105000	0.067282	0.000673
208.971000	0.067413	0.000674
208.835000	0.067575	0.000676
208.697000	0.067603	0.000676
208.560000	0.067727	0.000677
208.421000	0.067842	0.000678
208.280000	0.067929	0.000679
208.139000	0.068011	0.000680
207.999000	0.068103	0.000681
207.859000	0.068233	0.000682
207.715000	0.068337	0.000683
207.570000	0.068439	0.000684
207.423000	0.068535	0.000685
207.275000	0.068591	0.000686
207.125000	0.068597	0.000686
206.972000	0.068550	0.000685
206.815000	0.068440	0.000684
206.654000	0.068265	0.000683
206.491000	0.068031	0.000680
206.327000	0.067737	0.000677
206.162000	0.067365	0.000674
206.002000	0.066932	0.000669
205.849000	0.066434	0.000664
205.697000	0.065890	0.000659
205.548000	0.065358	0.000654
205.404000	0.064833	0.000648
205.264000	0.064348	0.000643
205.127000	0.063920	0.000639
204.989000	0.063577	0.000636
204.853000	0.063317	0.000633
204.717000	0.063130	0.000631
204.583000	0.063008	0.000630
204.449000	0.062963	0.000630
204.315000	0.063008	0.000630
204.182000	0.063049	0.000630
204.051000	0.063100	0.000631
203.923000	0.063141	0.000631
203.796000	0.063189	0.000632
203.669000	0.063194	0.000632
203.540000	0.063174	0.000632
203.410000	0.063115	0.000631
203.283000	0.063026	0.000630
203.155000	0.062822	0.000628
203.030000	0.062635	0.000626
202.903000	0.062427	0.000624
202.776000	0.062189	0.000622
202.651000	0.061936	0.000619
202.529000	0.061691	0.000617
202.407000	0.061453	0.000615
202.286000	0.061420	0.000614
202.163000	0.061239	0.000612
202.042000	0.061123	0.000611
201.919000	0.061011	0.000610
201.794000	0.060916	0.000609
201.667000	0.060821	0.000608
201.540000	0.060748	0.000607
201.411000	0.060680	0.000607
201.284000	0.060636	0.000606
201.155000	0.060588	0.000606
201.027000	0.060549	0.000605
200.900000	0.060513	0.000605
200.775000	0.060474	0.000605
200.650000	0.060377	0.000604
200.524000	0.060379	0.000604
200.400000	0.060373	0.000604
200.273000	0.060378	0.000604
200.143000	0.060394	0.000604
200.013000	0.060387	0.000604
199.880000	0.060423	0.000604
199.744000	0.060453	0.000605
199.608000	0.060468	0.000605
199.473000	0.060429	0.000604
199.339000	0.060325	0.000603
199.206000	0.060164	0.000602
199.073000	0.059958	0.000600
198.941000	0.059709	0.000597
198.812000	0.059444	0.000594
198.684000	0.059174	0.000592
198.558000	0.058927	0.000589
198.433000	0.058602	0.000586
198.312000	0.058402	0.000584
198.195000	0.058234	0.000582
198.080000	0.058107	0.000581
197.962000	0.058055	0.000581
197.846000	0.058058	0.000581
197.733000	0.058108	0.000581
197.620000	0.058193	0.000582
197.512000	0.058297	0.000583
197.404000	0.058436	0.000584
197.299000	0.058573	0.000586
197.194000	0.058697	0.000587
197.090000	0.058748	0.000587
196.984000	0.058790	0.000588
196.877000	0.058779	0.000588
196.768000	0.058709	0.000587
196.657000	0.058576	0.000586
196.540000	0.058373	0.000584
196.418000	0.058109	0.000581
196.293000	0.057798	0.000578
196.166000	0.057431	0.000574
196.039000	0.057024	0.000570
195.912000	0.056519	0.000565
195.784000	0.056038	0.000560
195.657000	0.055694	0.000557
195.530000	0.055250	0.000552
195.401000	0.054850	0.000549
195.272000	0.054492	0.000545
195.143000	0.054170	0.000542
195.015000	0.053874	0.000539
194.886000	0.053606	0.000536
194.756000	0.053374	0.000534
194.624000	0.053172	0.000532
194.491000	0.053000	0.000530
194.356000	0.052873	0.000529
194.223000	0.052783	0.000528
194.087000	0.052726	0.000527
193.950000	0.052700	0.000527
193.814000	0.052700	0.000527
193.678000	0.052711	0.000527
193.542000	0.052740	0.000527
193.407000	0.052784	0.000528
193.271000	0.052785	0.000528
193.133000	0.052857	0.000529
192.995000	0.052952	0.000530
192.858000	0.053051	0.000531
192.720000	0.053166	0.000532
192.580000	0.053262	0.000533
192.440000	0.053329	0.000533
192.300000	0.053368	0.000534
192.160000	0.053357	0.000534
192.019000	0.053310	0.000533
191.878000	0.053236	0.000532
191.737000	0.053130	0.000531
191.597000	0.053004	0.000530
191.456000	0.052876	0.000529
191.314000	0.052748	0.000527
191.171000	0.052646	0.000526
191.026000	0.052563	0.000526
190.881000	0.052469	0.000525
190.734000	0.052414	0.000524
190.587000	0.052382	0.000524
190.442000	0.052360	0.000524
190.297000	0.052414	0.000524
190.155000	0.052449	0.000524
190.016000	0.052486	0.000525
189.878000	0.052568	0.000526
189.741000	0.052626	0.000526
189.604000	0.052650	0.000526
189.466000	0.052645	0.000526
189.327000	0.052574	0.000526
189.186000	0.052460	0.000525
189.044000	0.052302	0.000523
188.902000	0.052101	0.000521
188.760000	0.051849	0.000518
188.615000	0.051559	0.000516
188.470000	0.051231	0.000512
188.326000	0.050868	0.000509
188.180000	0.050466	0.000505
188.035000	0.050222	0.000502
187.889000	0.049842	0.000498
187.745000	0.049504	0.000495
187.600000	0.049218	0.000492
187.453000	0.049054	0.000491
187.307000	0.048884	0.000489
187.159000	0.048787	0.000488
187.013000	0.048740	0.000487
186.868000	0.048728	0.000487
186.725000	0.048750	0.000487
186.581000	0.048801	0.000488
186.437000	0.048826	0.000488
186.291000	0.048844	0.000488
186.147000	0.048867	0.000489
186.004000	0.048891	0.000489
185.865000	0.048905	0.000489
185.725000	0.048921	0.000489
185.585000	0.048922	0.000489
185.445000	0.048900	0.000489
185.303000	0.048910	0.000489
185.157000	0.048829	0.000488
185.007000	0.048819	0.000488
184.854000	0.048688	0.000487
184.696000	0.048534	0.000485
184.535000	0.048382	0.000484
184.373000	0.048169	0.000482
184.213000	0.047935	0.000479
184.054000	0.047680	0.000477
183.896000	0.047422	0.000474
183.739000	0.047145	0.000471
183.584000	0.046888	0.000469
183.429000	0.046654	0.000467
183.277000	0.046439	0.000464
183.123000	0.046259	0.000463
182.967000	0.046122	0.000461
182.812000	0.046001	0.000460
182.657000	0.045909	0.000459
182.502000	0.045831	0.000458
182.346000	0.045741	0.000457
182.190000	0.045682	0.000457
182.034000	0.045649	0.000456
181.877000	0.045640	0.000456
181.718000	0.045651	0.000457
181.560000	0.045748	0.000457
181.400000	0.045813	0.000458
181.243000	0.045877	0.000459
181.086000	0.045921	0.000459
180.930000	0.045917	0.000459
180.777000	0.045855	0.000459
180.624000	0.045744	0.000457
180.473000	0.045577	0.000456
180.322000	0.045361	0.000454
180.172000	0.045081	0.000451
180.023000	0.044768	0.000448
179.874000	0.044407	0.000444
179.726000	0.044016	0.000440
179.579000	0.043655	0.000437
179.432000	0.043315	0.000433
179.285000	0.043023	0.000430
179.140000	0.042782	0.000428
178.993000	0.042612	0.000426
178.845000	0.042506	0.000425
178.698000	0.042475	0.000425
178.548000	0.042554	0.000426
178.398000	0.042630	0.000426
178.246000	0.042728	0.000427
178.096000	0.042819	0.000428
177.946000	0.042885	0.000429
177.795000	0.042938	0.000429
177.644000	0.042965	0.000430
177.490000	0.042933	0.000429
177.338000	0.042875	0.000429
177.185000	0.042779	0.000428
177.031000	0.042634	0.000426
176.878000	0.042447	0.000424
176.725000	0.042221	0.000422
176.571000	0.041953	0.000420
176.416000	0.041659	0.000417
176.262000	0.041248	0.000412
176.108000	0.040884	0.000409
175.953000	0.040531	0.000405
175.797000	0.040161	0.000402
175.637000	0.039801	0.000398
175.477000	0.039471	0.000395
175.319000	0.039162	0.000392
175.163000	0.038857	0.000389
175.011000	0.038553	0.000386
174.863000	0.038214	0.000382
174.715000	0.037906	0.000379
174.568000	0.037602	0.000376
174.421000	0.037327	0.000373
174.271000	0.037086	0.000371
174.118000	0.036892	0.000369
173.962000	0.036732	0.000367
173.805000	0.036623	0.000366
173.648000	0.036675	0.000367
173.490000	0.036690	0.000367
173.331000	0.036789	0.000368
173.176000	0.036957	0.000370
173.024000	0.037210	0.000372
172.871000	0.037379	0.000374
172.716000	0.037761	0.000378
172.558000	0.038165	0.000382
172.399000	0.038591	0.000386
172.240000	0.038989	0.000390
172.081000	0.039321	0.000393
171.922000	0.039583	0.000396
171.767000	0.039772	0.000398
171.614000	0.039888	0.000399
171.463000	0.039921	0.000399
171.313000	0.039901	0.000399
171.163000	0.039825	0.000398
171.014000	0.039698	0.000397
170.865000	0.039544	0.000395
170.717000	0.039346	0.000393
170.569000	0.039070	0.000391
170.422000	0.038850	0.000388
170.275000	0.038667	0.000387
170.130000	0.038523	0.000385
169.988000	0.038361	0.000384
169.845000	0.038280	0.000383
169.703000	0.038235	0.000382
169.560000	0.038214	0.000382
169.415000	0.038206	0.000382
169.270000	0.038180	0.000382
169.123000	0.038150	0.000381
168.974000	0.038097	0.000381
168.827000	0.038023	0.000380
168.678000	0.037922	0.000379
168.529000	0.037772	0.000378
168.380000	0.037583	0.000376
168.232000	0.037353	0.000374
168.083000	0.037131	0.000371
167.934000	0.036837	0.000368
167.783000	0.036537	0.000365
167.635000	0.036245	0.000362
167.486000	0.035966	0.000360
167.336000	0.035723	0.000357
167.187000	0.035586	0.000356
167.038000	0.035427	0.000354
166.887000	0.035284	0.000353
166.733000	0.035150	0.000351
166.577000	0.035016	0.000350
166.419000	0.034867	0.000349
166.259000	0.034707	0.000347
166.100000	0.034538	0.000345
165.941000	0.034376	0.000344
165.783000	0.034221	0.000342
165.627000	0.034069	0.000341
165.471000	0.033934	0.000339
165.316000	0.033821	0.000338
165.162000	0.033778	0.000338
165.007000	0.033948	0.000339
164.850000	0.034429	0.000344
164.690000	0.035190	0.000352
164.530000	0.036310	0.000363
164.372000	0.037734	0.000377
164.215000	0.039465	0.000395
164.059000	0.041452	0.000415
163.904000	0.043595	0.000436
163.749000	0.045803	0.000458
163.594000	0.048023	0.000480
163.441000	0.050258	0.000503
163.288000	0.052493	0.000525
163.136000	0.054711	0.000547
162.986000	0.056923	0.000569
162.839000	0.059115	0.000591
162.696000	0.061276	0.000613
162.557000	0.063380	0.000634
162.420000	0.065435	0.000654
162.289000	0.067454	0.000675
162.162000	0.069435	0.000694
162.039000	0.071390	0.000714
161.916000	0.073331	0.000733
161.794000	0.075260	0.000753
161.671000	0.077186	0.000772
161.547000	0.079115	0.000791
161.423000	0.081058	0.000811
161.298000	0.083092	0.000831
161.172000	0.085070	0.000851
161.045000	0.087062	0.000871
160.915000	0.089084	0.000891
160.780000	0.091115	0.000911
160.644000	0.093162	0.000932
160.506000	0.095218	0.000952
160.365000	0.097300	0.000973
160.220000	0.099419	0.000994
160.073000	0.101574	0.001016
159.924000	0.103762	0.001038
159.775000	0.106001	0.001060
159.626000	0.108264	0.001083
159.477000	0.110543	0.001105
159.328000	0.112800	0.001128
159.178000	0.115076	0.001151
159.026000	0.117357	0.001174
158.873000	0.119561	0.001196
158.716000	0.121873	0.001219
158.559000	0.124175	0.001242
158.404000	0.126491	0.001265
158.250000	0.128791	0.001288
158.097000	0.131075	0.001311
157.943000	0.133334	0.001333
157.785000	0.135586	0.001356
157.629000	0.137829	0.001378
157.471000	0.140137	0.001401
157.314000	0.142589	0.001426
157.155000	0.145248	0.001452
156.999000	0.148161	0.001482
156.844000	0.151370	0.001514
156.688000	0.154932	0.001549
156.531000	0.158826	0.001588
156.374000	0.163101	0.001631
156.217000	0.167783	0.001678
156.061000	0.172849	0.001728
155.906000	0.178349	0.001783
155.753000	0.184329	0.001843
155.600000	0.190642	0.001906
155.449000	0.197318	0.001973
155.301000	0.204333	0.002043
155.159000	0.211653	0.002117
155.017000	0.219264	0.002193
154.873000	0.227117	0.002271
154.729000	0.235211	0.002352
154.585000	0.243533	0.002435
154.440000	0.252069	0.002521
154.298000	0.260833	0.002608
154.156000	0.269815	0.002698
154.015000	0.278996	0.002790
153.878000	0.288364	0.002884
153.746000	0.297935	0.002979
153.617000	0.307700	0.003077
153.493000	0.317627	0.003176
153.371000	0.327533	0.003275
153.252000	0.337515	0.003375
153.134000	0.347579	0.003476
153.016000	0.357720	0.003577
152.899000	0.367983	0.003680
152.778000	0.378423	0.003784
152.655000	0.389033	0.003890
152.531000	0.399935	0.003999
152.403000	0.411086	0.004111
152.275000	0.422499	0.004225
152.144000	0.434159	0.004342
152.013000	0.446061	0.004461
151.879000	0.458189	0.004582
151.738000	0.470529	0.004705
151.594000	0.483061	0.004831
151.448000	0.495774	0.004958
151.300000	0.508651	0.005087
151.156000	0.521688	0.005217
151.012000	0.534858	0.005349
150.866000	0.548115	0.005481
150.720000	0.561331	0.005613
150.575000	0.574395	0.005744
150.435000	0.587349	0.005873
150.295000	0.600115	0.006001
150.159000	0.612697	0.006127
150.023000	0.625129	0.006251
149.891000	0.637453	0.006375
149.762000	0.649731	0.006497
149.631000	0.662053	0.006621
149.503000	0.674441	0.006744
149.377000	0.686879	0.006869
149.256000	0.699376	0.006994
149.134000	0.711935	0.007119
149.013000	0.724557	0.007246
148.888000	0.737260	0.007373
148.765000	0.750057	0.007501
148.644000	0.762982	0.007630
148.523000	0.776034	0.007760
148.400000	0.789200	0.007892
148.282000	0.802501	0.008025
148.162000	0.815893	0.008159
148.043000	0.829408	0.008294
147.922000	0.843030	0.008430
147.801000	0.856751	0.008568
147.680000	0.870596	0.008706
147.559000	0.884542	0.008845
147.438000	0.898579	0.008986
147.318000	0.912679	0.009127
147.200000	0.926850	0.009269
147.079000	0.941048	0.009410
146.955000	0.955289	0.009553
146.830000	0.969539	0.009695
146.706000	0.983821	0.009838
146.583000	0.998120	0.009981
146.460000	1.012440	0.010124
146.331000	1.026820	0.010268
146.200000	1.041160	0.010412
146.068000	1.055530	0.010555
145.934000	1.069960	0.010700
145.801000	1.084440	0.010844
145.668000	1.099030	0.010990
145.530000	1.113700	0.011137
145.387000	1.128470	0.011285
145.246000	1.143290	0.011433
145.105000	1.158190	0.011582
144.965000	1.173110	0.011731
144.826000	1.188070	0.011881
144.684000	1.203060	0.012031
144.538000	1.218070	0.012181
144.392000	1.233100	0.012331
144.242000	1.248140	0.012481
144.088000	1.263190	0.012632
143.933000	1.278210	0.012782
143.774000	1.293130	0.012931
143.612000	1.307910	0.013079
143.452000	1.322490	0.013225
143.291000	1.336820	0.013368
143.131000	1.350930	0.013509
142.970000	1.364800	0.013648
142.811000	1.378420	0.013784
142.653000	1.391770	0.013918
142.499000	1.404850	0.014049
142.345000	1.417610	0.014176
142.193000	1.430080	0.014301
142.040000	1.442250	0.014423
141.889000	1.454110	0.014541
141.737000	1.465690	0.014657
141.587000	1.477010	0.014770
141.439000	1.488070	0.014881
141.291000	1.498880	0.014989
141.146000	1.509490	0.015095
141.002000	1.519870	0.015199
140.854000	1.530060	0.015301
140.704000	1.540190	0.015402
140.556000	1.550020	0.015500
140.409000	1.559670	0.015597
140.262000	1.569170	0.015692
140.109000	1.578500	0.015785
139.954000	1.587650	0.015877
139.797000	1.596670	0.015967
139.640000	1.605710	0.016057
139.479000	1.614750	0.016148
139.317000	1.623680	0.016237
139.157000	1.632520	0.016325
138.995000	1.641220	0.016412
138.831000	1.649720	0.016497
138.664000	1.658000	0.016580
138.497000	1.665970	0.016660
138.330000	1.673680	0.016737
138.166000	1.681130	0.016811
138.000000	1.688350	0.016884
137.833000	1.695310	0.016953
137.665000	1.702120	0.017021
137.499000	1.708750	0.017088
137.332000	1.715240	0.017152
137.163000	1.721610	0.017216
136.992000	1.727870	0.017279
136.819000	1.734000	0.017340
136.646000	1.740030	0.017400
136.473000	1.745950	0.017460
136.300000	1.751740	0.017517
136.125000	1.757380	0.017574
135.948000	1.762870	0.017629
135.770000	1.768200	0.017682
135.593000	1.773360	0.017734
135.420000	1.778330	0.017783
135.249000	1.783110	0.017831
135.078000	1.787720	0.017877
134.907000	1.792170	0.017922
134.737000	1.796440	0.017964
134.574000	1.800620	0.018006
134.412000	1.804700	0.018047
134.251000	1.808540	0.018085
134.092000	1.812470	0.018125
133.933000	1.816360	0.018164
133.776000	1.820250	0.018203
133.621000	1.824120	0.018241
133.468000	1.828000	0.018280
133.315000	1.831890	0.018319
133.164000	1.835750	0.018358
133.011000	1.839610	0.018396
132.856000	1.843430	0.018434
132.706000	1.847190	0.018472
132.555000	1.850900	0.018509
132.403000	1.854520	0.018545
132.254000	1.858040	0.018580
132.106000	1.861480	0.018615
131.955000	1.864860	0.018649
131.806000	1.868160	0.018682
131.658000	1.871390	0.018714
131.505000	1.874590	0.018746
131.352000	1.877730	0.018777
131.197000	1.880820	0.018808
131.045000	1.883890	0.018839
130.891000	1.886920	0.018869
130.738000	1.889900	0.018899
130.583000	1.892910	0.018929
130.423000	1.895900	0.018959
130.264000	1.898840	0.018988
130.106000	1.901770	0.019018
129.949000	1.904600	0.019046
129.790000	1.907350	0.019074
129.631000	1.909990	0.019100
129.472000	1.912520	0.019125
129.313000	1.914950	0.019150
129.151000	1.917280	0.019173
128.991000	1.919530	0.019195
128.832000	1.921680	0.019217
128.672000	1.923720	0.019237
128.512000	1.925750	0.019258
128.353000	1.927730	0.019277
128.196000	1.929670	0.019297
128.040000	1.931580	0.019316
127.885000	1.933460	0.019335
127.731000	1.935290	0.019353
127.581000	1.937130	0.019371
127.431000	1.938960	0.019390
127.283000	1.940660	0.019407
127.132000	1.942250	0.019423
126.985000	1.943680	0.019437
126.839000	1.944970	0.019450
126.693000	1.946110	0.019461
126.547000	1.947120	0.019471
126.400000	1.947980	0.019480
126.249000	1.948720	0.019487
126.100000	1.949290	0.019493
125.952000	1.949850	0.019499
125.801000	1.950360	0.019504
125.652000	1.950850	0.019509
125.505000	1.951330	0.019513
125.359000	1.951790	0.019518
125.214000	1.952210	0.019522
125.072000	1.952690	0.019527
124.929000	1.953040	0.019530
124.787000	1.953510	0.019535
124.648000	1.954030	0.019540
124.510000	1.954580	0.019546
124.375000	1.955210	0.019552
124.238000	1.955910	0.019559
124.102000	1.956680	0.019567
123.964000	1.957530	0.019575
123.825000	1.958440	0.019584
123.685000	1.959450	0.019595
123.544000	1.960500	0.019605
123.402000	1.961650	0.019617
123.260000	1.962840	0.019628
123.116000	1.964060	0.019641
122.971000	1.965330	0.019653
122.825000	1.966620	0.019666
122.679000	1.967900	0.019679
122.534000	1.969170	0.019692
122.385000	1.970450	0.019705
122.234000	1.971640	0.019716
122.083000	1.972750	0.019728
121.933000	1.973770	0.019738
121.783000	1.974690	0.019747
121.636000	1.975510	0.019755
121.487000	1.976240	0.019762
121.340000	1.976890	0.019769
121.194000	1.977490	0.019775
121.048000	1.977990	0.019780
120.903000	1.978540	0.019785
120.759000	1.979070	0.019791
120.615000	1.979620	0.019796
120.472000	1.980210	0.019802
120.328000	1.980810	0.019808
120.184000	1.981440	0.019814
120.040000	1.982110	0.019821
119.894000	1.982770	0.019828
119.746000	1.983470	0.019835
119.600000	1.984140	0.019841
119.455000	1.984790	0.019848
119.314000	1.985570	0.019856
119.172000	1.986190	0.019862
119.027000	1.986760	0.019868
118.880000	1.987290	0.019873
118.732000	1.987780	0.019878
118.580000	1.988260	0.019883
118.433000	1.988630	0.019886
118.287000	1.989000	0.019890
118.140000	1.989350	0.019894
117.988000	1.989710	0.019897
117.835000	1.990110	0.019901
117.683000	1.990540	0.019905
117.535000	1.991030	0.019910
117.387000	1.991570	0.019916
117.237000	1.992150	0.019922
117.086000	1.992760	0.019928
116.936000	1.993410	0.019934
116.785000	1.994100	0.019941
116.631000	1.994780	0.019948
116.477000	1.995470	0.019955
116.320000	1.996180	0.019962
116.166000	1.996850	0.019969
116.013000	1.997520	0.019975
115.858000	1.998130	0.019981
115.705000	1.998700	0.019987
115.554000	1.999220	0.019992
115.404000	1.999720	0.019997
115.257000	2.000160	0.020002
115.107000	2.000520	0.020005
114.957000	2.000920	0.020009
114.810000	2.001310	0.020013
114.661000	2.001670	0.020017
114.510000	2.001980	0.020020
114.360000	2.002270	0.020023
114.210000	2.002520	0.020025
114.060000	2.002740	0.020027
113.911000	2.002990	0.020030
113.762000	2.003160	0.020032
113.613000	2.003300	0.020033
113.464000	2.003410	0.020034
113.314000	2.003480	0.020035
113.166000	2.003500	0.020035
113.016000	2.003530	0.020035
112.867000	2.003500	0.020035
112.718000	2.003470	0.020035
112.569000	2.003480	0.020035
112.419000	2.003520	0.020035
112.270000	2.003680	0.020037
112.120000	2.003920	0.020039
111.971000	2.004220	0.020042
111.822000	2.004520	0.020045
111.675000	2.004980	0.020050
111.528000	2.005500	0.020055
111.380000	2.006150	0.020062
111.238000	2.006750	0.020068
111.094000	2.007370	0.020074
110.951000	2.008000	0.020080
110.810000	2.008590	0.020086
110.667000	2.009230	0.020092
110.522000	2.009910	0.020099
110.376000	2.010560	0.020106
110.224000	2.011220	0.020112
110.076000	2.011870	0.020119
109.927000	2.012520	0.020125
109.777000	2.013130	0.020131
109.625000	2.013710	0.020137
109.471000	2.014210	0.020142
109.316000	2.014650	0.020147
109.160000	2.015010	0.020150
109.003000	2.015290	0.020153
108.847000	2.015490	0.020155
108.690000	2.015640	0.020156
108.536000	2.015760	0.020158
108.381000	2.015770	0.020158
108.226000	2.015770	0.020158
108.072000	2.015770	0.020158
107.918000	2.015750	0.020158
107.764000	2.015770	0.020158
107.613000	2.015790	0.020158
107.463000	2.015820	0.020158
107.318000	2.015880	0.020159
107.171000	2.015950	0.020160
107.023000	2.016050	0.020161
106.876000	2.016180	0.020162
106.733000	2.016300	0.020163
106.589000	2.016430	0.020164
106.445000	2.016560	0.020166
106.300000	2.016680	0.020167
106.153000	2.016810	0.020168
106.006000	2.016850	0.020169
105.861000	2.016850	0.020169
105.715000	2.016730	0.020167
105.568000	2.016600	0.020166
105.422000	2.016460	0.020165
105.275000	2.016310	0.020163
105.132000	2.016190	0.020162
104.990000	2.016100	0.020161
104.845000	2.016080	0.020161
104.701000	2.016120	0.020161
104.556000	2.016240	0.020162
104.409000	2.016430	0.020164
104.262000	2.016670	0.020167
104.116000	2.016980	0.020170
103.969000	2.017300	0.020173
103.823000	2.017650	0.020177
103.677000	2.017960	0.020180
103.532000	2.018320	0.020183
103.386000	2.018650	0.020187
103.241000	2.018970	0.020190
103.094000	2.019280	0.020193
102.947000	2.019520	0.020195
102.800000	2.019740	0.020197
102.653000	2.019920	0.020199
102.506000	2.020070	0.020201
102.359000	2.020200	0.020202
102.211000	2.020320	0.020203
102.064000	2.020400	0.020204
101.918000	2.020500	0.020205
101.772000	2.020600	0.020206
101.627000	2.020710	0.020207
101.480000	2.020830	0.020208
101.334000	2.020970	0.020210
101.189000	2.021060	0.020211
101.044000	2.021190	0.020212
100.899000	2.021290	0.020213
100.754000	2.021370	0.020214
100.608000	2.021460	0.020215
100.462000	2.021470	0.020215
100.317000	2.021500	0.020215
100.171000	2.021450	0.020215
100.028000	2.021370	0.020214
99.884200	2.021280	0.020213
99.738200	2.021210	0.020212
99.594000	2.021160	0.020212
99.448700	2.021120	0.020211
99.305500	2.021120	0.020211
99.169400	2.021100	0.020211
99.030800	2.021090	0.020211
98.892300	2.021090	0.020211
98.755500	2.021120	0.020211
98.620600	2.021140	0.020211
98.487300	2.021210	0.020212
98.355500	2.021290	0.020213
98.223800	2.021400	0.020214
98.093800	2.021520	0.020215
97.962800	2.021730	0.020217
97.832700	2.021990	0.020220
97.701600	2.022230	0.020222
97.568700	2.022470	0.020225
97.435500	2.022750	0.020228
97.301000	2.023130	0.020231
97.166700	2.023430	0.020234
97.032900	2.023750	0.020238
96.896800	2.024050	0.020241
96.759800	2.024340	0.020243
96.621700	2.024600	0.020246
96.484000	2.024840	0.020248
96.345200	2.025070	0.020251
96.205300	2.025230	0.020252
96.064600	2.025340	0.020253
95.925000	2.025400	0.020254
95.785000	2.025700	0.020257
95.644800	2.025680	0.020257
95.503500	2.025640	0.020256
95.362200	2.025580	0.020256
95.220500	2.025530	0.020255
95.078900	2.025500	0.020255
94.937400	2.025520	0.020255
94.796000	2.025560	0.020256
94.654800	2.025630	0.020256
94.513500	2.025720	0.020257
94.370700	2.025810	0.020258
94.226800	2.025840	0.020258
94.083600	2.025920	0.020259
93.940000	2.025950	0.020260
93.795900	2.025950	0.020260
93.652700	2.025900	0.020259
93.505300	2.025810	0.020258
93.359800	2.025670	0.020257
93.216100	2.025490	0.020255
93.073200	2.025370	0.020254
92.931300	2.025200	0.020252
92.788700	2.025080	0.020251
92.645600	2.025000	0.020250
92.503000	2.024990	0.020250
92.359600	2.025050	0.020251
92.216200	2.025190	0.020252
92.072300	2.025400	0.020254
91.928200	2.025680	0.020257
91.784400	2.026020	0.020260
91.641300	2.026410	0.020264
91.494200	2.026900	0.020269
91.346700	2.027370	0.020274
91.201100	2.027810	0.020278
91.052900	2.028220	0.020282
90.906500	2.028560	0.020286
90.759800	2.028850	0.020289
90.608300	2.029070	0.020291
90.457400	2.029250	0.020293
90.307200	2.029340	0.020293
90.157100	2.029370	0.020294
90.007500	2.029350	0.020294
89.860500	2.029300	0.020293
89.713900	2.029270	0.020293
89.567400	2.029240	0.020292
89.420300	2.029230	0.020292
89.271800	2.029230	0.020292
89.124300	2.029250	0.020293
88.975700	2.029290	0.020293
88.828400	2.029320	0.020293
88.679600	2.029370	0.020294
88.529800	2.029400	0.020294
88.380200	2.029420	0.020294
88.232700	2.029400	0.020294
88.084200	2.029370	0.020294
87.934300	2.029240	0.020292
87.782500	2.029150	0.020292
87.629800	2.029040	0.020290
87.479700	2.028910	0.020289
87.330100	2.028780	0.020288
87.180000	2.028640	0.020286
87.027800	2.028500	0.020285
86.875700	2.028360	0.020284
86.722500	2.028220	0.020282
86.572400	2.028120	0.020281
86.425900	2.028040	0.020280
86.277300	2.027950	0.020280
86.129100	2.027940	0.020279
85.982300	2.027970	0.020280
85.835400	2.028030	0.020280
85.688700	2.028110	0.020281
85.541800	2.028230	0.020282
85.392600	2.028360	0.020284
85.240600	2.028490	0.020285
85.089900	2.028640	0.020286
84.941800	2.028790	0.020288
84.793700	2.028970	0.020290
84.646000	2.029180	0.020292
84.498300	2.029400	0.020294
84.351200	2.029650	0.020297
84.204100	2.029910	0.020299
84.056600	2.030160	0.020302
83.909300	2.030420	0.020304
83.763100	2.030640	0.020306
83.613800	2.030850	0.020309
83.463600	2.030960	0.020310
83.315500	2.031050	0.020311
83.168800	2.031130	0.020311
83.021000	2.031190	0.020312
82.872000	2.031230	0.020312
82.719700	2.031210	0.020312
82.568400	2.031200	0.020312
82.423200	2.031210	0.020312
82.277400	2.031190	0.020312
82.128100	2.031180	0.020312
81.975400	2.031170	0.020312
81.821700	2.031180	0.020312
81.669600	2.031210	0.020312
81.518100	2.031260	0.020313
81.367800	2.031350	0.020314
81.219200	2.031400	0.020314
81.070800	2.031160	0.020312
80.924000	2.031180	0.020312
80.777400	2.031200	0.020312
80.630800	2.031130	0.020311
80.485300	2.031030	0.020310
80.343000	2.030870	0.020309
80.200400	2.030670	0.020307
80.056900	2.030490	0.020305
79.914900	2.030250	0.020303
79.776000	2.029990	0.020300
79.635100	2.029760	0.020298
79.494600	2.029560	0.020296
79.358400	2.029400	0.020294
79.219400	2.029270	0.020293
79.079900	2.029180	0.020292
78.939900	2.029140	0.020291
78.797400	2.029180	0.020292
78.654100	2.029230	0.020292
78.510200	2.029330	0.020293
78.367400	2.029340	0.020293
78.225400	2.029410	0.020294
78.086800	2.029430	0.020294
77.947000	2.029420	0.020294
77.804400	2.029380	0.020294
77.665100	2.029140	0.020291
77.523500	2.029020	0.020290
77.380000	2.028910	0.020289
77.236500	2.028800	0.020288
77.091100	2.028710	0.020287
76.946200	2.028640	0.020286
76.807400	2.028610	0.020286
76.668700	2.028620	0.020286
76.526500	2.028690	0.020287
76.382400	2.028800	0.020288
76.240700	2.029000	0.020290
76.102100	2.029220	0.020292
75.963300	2.029470	0.020295
75.823400	2.029710	0.020297
75.678700	2.029970	0.020300
75.530500	2.030220	0.020302
75.383700	2.030470	0.020305
75.238400	2.030660	0.020307
75.090200	2.030800	0.020308
74.941500	2.030740	0.020307
74.792500	2.030770	0.020308
74.643300	2.030800	0.020308
74.497700	2.030780	0.020308
74.355300	2.030760	0.020308
74.212800	2.030730	0.020307
74.066700	2.030700	0.020307
73.921200	2.030680	0.020307
73.775800	2.030680	0.020307
73.631600	2.030770	0.020308
73.489700	2.030860	0.020309
73.349200	2.031020	0.020310
73.208200	2.031130	0.020311
73.064800	2.031220	0.020312
72.920100	2.031270	0.020313
72.777700	2.031290	0.020313
72.639000	2.031280	0.020313
72.495100	2.031230	0.020312
72.349800	2.031140	0.020311
72.204300	2.031100	0.020311
72.060100	2.030980	0.020310
71.920600	2.030830	0.020308
71.779100	2.030680	0.020307
71.634100	2.030520	0.020305
71.490200	2.030350	0.020304
71.346400	2.030200	0.020302
71.205100	2.030050	0.020301
71.065700	2.029980	0.020300
70.927600	2.029930	0.020299
70.787000	2.029910	0.020299
70.645100	2.029920	0.020299
70.502100	2.029930	0.020299
70.360700	2.029970	0.020300
70.220300	2.030010	0.020300
70.078000	2.030040	0.020300
69.933900	2.030040	0.020300
69.786500	2.030020	0.020300
69.642500	2.030020	0.020300
69.496300	2.029950	0.020300
69.347600	2.029920	0.020299
69.198500	2.029900	0.020299
69.048200	2.029880	0.020299
68.901600	2.029830	0.020298
68.753700	2.029790	0.020298
68.601400	2.029750	0.020298
68.451800	2.029700	0.020297
68.304800	2.029750	0.020298
68.157800	2.029780	0.020298
68.011400	2.029790	0.020298
67.862100	2.029810	0.020298
67.713500	2.029850	0.020299
67.566300	2.029890	0.020299
67.417100	2.029900	0.020299
67.264900	2.029920	0.020299
67.116200	2.029920	0.020299
66.966900	2.030200	0.020302
66.813900	2.030190	0.020302
66.662200	2.030200	0.020302
66.511500	2.030230	0.020302
66.359300	2.030240	0.020302
66.208400	2.030300	0.020303
66.058500	2.030350	0.020304
65.904500	2.030410	0.020304
65.753100	2.030500	0.020305
65.601500	2.030530	0.020305
65.448100	2.030580	0.020306
65.293500	2.030650	0.020307
65.137600	2.030660	0.020307
64.981900	2.030640	0.020306
64.828800	2.030620	0.020306
64.679300	2.030590	0.020306
64.531800	2.030570	0.020306
64.387700	2.030530	0.020305
64.240600	2.030450	0.020305
64.093000	2.030410	0.020304
63.947100	2.030380	0.020304
63.801700	2.030430	0.020304
63.656100	2.030470	0.020305
63.510200	2.030530	0.020305
63.366600	2.030600	0.020306
63.224000	2.030680	0.020307
63.079500	2.030950	0.020310
62.934700	2.031100	0.020311
62.790400	2.031240	0.020312
62.645600	2.031360	0.020314
62.498600	2.031440	0.020314
62.349300	2.031480	0.020315
62.201400	2.031500	0.020315
62.054800	2.031470	0.020315
61.908700	2.031350	0.020314
61.762900	2.031230	0.020312
61.613500	2.031050	0.020311
61.466700	2.030870	0.020309
61.320900	2.030680	0.020307
61.175200	2.030510	0.020305
61.028400	2.030360	0.020304
60.881700	2.030230	0.020302
60.734700	2.030150	0.020302
60.588400	2.030110	0.020301
60.440800	2.030090	0.020301
60.293700	2.030240	0.020302
60.147600	2.030280	0.020303
59.999600	2.030300	0.020303
59.849100	2.030330	0.020303
59.701200	2.030350	0.020304
59.554400	2.030340	0.020303
59.409800	2.030330	0.020303
59.264500	2.030300	0.020303
59.118100	2.030250	0.020303
58.973100	2.030110	0.020301
58.831600	2.029960	0.020300
58.692700	2.029800	0.020298
58.550600	2.029630	0.020296
58.410900	2.029480	0.020295
58.275300	2.029350	0.020294
58.140400	2.029250	0.020293
58.004300	2.029170	0.020292
57.868200	2.029140	0.020291
57.736300	2.029180	0.020292
57.606900	2.029200	0.020292
57.478200	2.029330	0.020293
57.348000	2.029510	0.020295
57.218400	2.029720	0.020297
57.089600	2.029950	0.020300
56.965100	2.030220	0.020302
56.840400	2.030520	0.020305
56.713900	2.030870	0.020309
56.591400	2.031230	0.020312
56.468700	2.031610	0.020316
56.343800	2.032000	0.020320
56.225100	2.032400	0.020324
56.103800	2.032810	0.020328
55.984100	2.033190	0.020332
55.865900	2.033570	0.020336
55.747600	2.033930	0.020339
55.630500	2.034270	0.020343
55.514600	2.034580	0.020346
55.398600	2.034800	0.020348
55.281400	2.035000	0.020350
55.166700	2.035150	0.020352
55.053600	2.035230	0.020352
54.940500	2.035400	0.020354
54.827500	2.035390	0.020354
54.714100	2.035340	0.020353
54.602400	2.035250	0.020353
54.489800	2.035130	0.020351
54.376100	2.034920	0.020349
54.258100	2.034720	0.020347
54.142800	2.034490	0.020345
54.031000	2.034250	0.020343
53.919500	2.034030	0.020340
53.808400	2.033810	0.020338
53.698500	2.033630	0.020336
53.589200	2.033450	0.020335
53.477300	2.033300	0.020333
53.364100	2.032890	0.020329
53.254200	2.032840	0.020328
53.145000	2.032770	0.020328
53.035600	2.032720	0.020327
52.927100	2.032680	0.020327
52.818200	2.032660	0.020327
52.709800	2.032670	0.020327
52.603200	2.032700	0.020327
52.497600	2.032720	0.020327
52.393700	2.032760	0.020328
52.290700	2.032830	0.020328
52.188300	2.032870	0.020329
52.087600	2.032960	0.020330
51.987500	2.033070	0.020331
51.889200	2.033160	0.020332
51.792400	2.033260	0.020333
51.696100	2.033330	0.020333
51.599400	2.033380	0.020334
51.504600	2.033420	0.020334
51.410800	2.033430	0.020334
51.318000	2.033430	0.020334
51.224100	2.033360	0.020334
51.130600	2.033310	0.020333
51.038700	2.033260	0.020333
50.945900	2.033210	0.020332
50.853900	2.033150	0.020332
50.760200	2.033070	0.020331
50.665700	2.032990	0.020330
50.571700	2.032900	0.020329
50.478200	2.032850	0.020329
50.384700	2.032830	0.020328
50.292100	2.032870	0.020329
50.199800	2.032990	0.020330
50.107900	2.033180	0.020332
50.017000	2.033520	0.020335
49.926500	2.033890	0.020339
49.837400	2.034280	0.020343
49.747800	2.034690	0.020347
49.658600	2.035090	0.020351
49.569600	2.035490	0.020355
49.480500	2.035870	0.020359
49.391900	2.036220	0.020362
49.303200	2.036520	0.020365
49.214500	2.036800	0.020368
49.126400	2.037040	0.020370
49.038100	2.037270	0.020373
48.951700	2.037470	0.020375
48.865100	2.037650	0.020377
48.779500	2.037810	0.020378
48.694800	2.037920	0.020379
48.608800	2.038060	0.020381
48.526800	2.038180	0.020382
48.444400	2.038330	0.020383
48.362800	2.038480	0.020385
48.281400	2.038640	0.020386
48.200100	2.038820	0.020388
48.119300	2.039000	0.020390
48.038200	2.039180	0.020392
47.957500	2.039340	0.020393
47.876900	2.039490	0.020395
47.798100	2.039600	0.020396
47.718900	2.039670	0.020397
47.641800	2.039680	0.020397
47.565300	2.039620	0.020396
47.488000	2.039500	0.020395
47.412400	2.039300	0.020393
47.336300	2.039040	0.020390
47.262600	2.038710	0.020387
47.188000	2.038330	0.020383
47.113600	2.037900	0.020379
47.039100	2.037420	0.020374
46.966100	2.036860	0.020369
46.893800	2.036200	0.020362
46.821800	2.035520	0.020355
46.750600	2.034830	0.020348
46.681700	2.034150	0.020342
46.612700	2.033470	0.020335
46.544500	2.032830	0.020328
46.479100	2.032240	0.020322
46.412100	2.031720	0.020317
46.346800	2.031280	0.020313
46.285900	2.030930	0.020309
46.221600	2.030690	0.020307
46.158100	2.030560	0.020306
46.094100	2.030600	0.020306
46.031100	2.030660	0.020307
45.969600	2.030690	0.020307
45.907200	2.030970	0.020310
45.845600	2.031320	0.020313
45.785000	2.031750	0.020318
45.724100	2.032220	0.020322
45.663700	2.032730	0.020327
45.605700	2.033240	0.020332
45.547600	2.033810	0.020338
45.490700	2.034350	0.020344
45.433900	2.034850	0.020349
45.379900	2.035330	0.020353
45.326800	2.035750	0.020358
45.273600	2.036100	0.020361
45.222200	2.036410	0.020364
45.170500	2.036690	0.020367
45.120900	2.036920	0.020369
45.071400	2.037130	0.020371
45.022400	2.037280	0.020373
44.974700	2.037380	0.020374
44.927100	2.037440	0.020374
44.879900	2.037440	0.020374
44.833000	2.037380	0.020374
44.788000	2.037220	0.020372
44.743300	2.037050	0.020371
44.698700	2.036850	0.020369
44.653200	2.036640	0.020366
44.608000	2.036410	0.020364
44.564000	2.036190	0.020362
44.518800	2.035960	0.020360
44.474300	2.035760	0.020358
44.429700	2.035580	0.020356
44.385100	2.035420	0.020354
44.339500	2.035280	0.020353
44.294200	2.035160	0.020352
44.250600	2.035110	0.020351
44.206400	2.035050	0.020351
44.162300	2.035000	0.020350
44.118000	2.034980	0.020350
44.074500	2.035000	0.020350
44.030600	2.035010	0.020350
43.987900	2.035070	0.020351
43.944900	2.035100	0.020351
43.901400	2.035110	0.020351
43.857500	2.035080	0.020351
43.814100	2.035030	0.020350
43.771200	2.034930	0.020349
43.729500	2.034750	0.020348
43.688100	2.034510	0.020345
43.646800	2.034150	0.020342
43.605100	2.033760	0.020338
43.563000	2.033330	0.020333
43.521300	2.032900	0.020329
43.480100	2.032460	0.020325
43.439900	2.032030	0.020320
43.399900	2.031630	0.020316
43.361200	2.031280	0.020313
43.321700	2.030990	0.020310
43.283400	2.030760	0.020308
43.244900	2.030580	0.020306
43.207500	2.030470	0.020305
43.170900	2.030410	0.020304
43.134800	2.030400	0.020304
43.099200	2.030420	0.020304
43.064700	2.030500	0.020305
43.030300	2.030560	0.020306
42.996500	2.030630	0.020306
42.962900	2.030690	0.020307
42.928400	2.030740	0.020307
42.896000	2.030770	0.020308
42.863500	2.030800	0.020308
42.827300	2.030800	0.020308
42.794000	2.030820	0.020308
42.761300	2.030840	0.020308
42.728300	2.030870	0.020309
42.694400	2.030920	0.020309
42.660600	2.031010	0.020310
42.628300	2.031120	0.020311
42.595100	2.031250	0.020313
42.561800	2.031420	0.020314
42.529300	2.031610	0.020316
42.496700	2.031800	0.020318
42.463800	2.032010	0.020320
42.431500	2.032260	0.020323
42.398700	2.032550	0.020326
42.367100	2.032870	0.020329
42.333500	2.033270	0.020333
42.301400	2.033710	0.020337
42.269100	2.034180	0.020342
42.238000	2.034630	0.020346
42.207200	2.035090	0.020351
42.176400	2.035520	0.020355
42.147700	2.035920	0.020359
42.119400	2.036260	0.020363
42.091000	2.036530	0.020365
42.062500	2.036730	0.020367
42.035400	2.036860	0.020369
42.008100	2.036890	0.020369
41.979200	2.036850	0.020369
41.951700	2.036650	0.020367
41.922200	2.036470	0.020365
41.893700	2.036180	0.020362
41.865400	2.035820	0.020358
41.835700	2.035390	0.020354
41.806800	2.034910	0.020349
41.777700	2.034390	0.020344
41.748200	2.033830	0.020338
41.719400	2.033280	0.020333
41.692000	2.032700	0.020327
41.663600	2.032160	0.020322
41.634800	2.031630	0.020316
41.606300	2.031120	0.020311
41.577600	2.030640	0.020306
41.549400	2.030250	0.020303
41.521800	2.029880	0.020299
41.494900	2.029550	0.020296
41.468500	2.029240	0.020292
41.442800	2.028990	0.020290
41.417400	2.028800	0.020288
41.392100	2.028700	0.020287
41.368300	2.028640	0.020286
41.344500	2.028650	0.020287
41.319800	2.028710	0.020287
41.294400	2.028850	0.020289
41.270400	2.028990	0.020290
41.246600	2.029140	0.020291
41.224900	2.029320	0.020293
41.201500	2.029500	0.020295
41.178100	2.029680	0.020297
41.154100	2.029840	0.020298
41.127900	2.029980	0.020300
41.102200	2.030110	0.020301
41.076900	2.030210	0.020302
41.051700	2.030320	0.020303
41.026900	2.030430	0.020304
41.002100	2.030530	0.020305
40.976200	2.030630	0.020306
40.950100	2.030720	0.020307
40.924900	2.030800	0.020308
40.899000	2.030840	0.020308
40.872700	2.030910	0.020309
40.847700	2.030940	0.020309
40.823000	2.030980	0.020310
40.797300	2.031020	0.020310
40.771300	2.031070	0.020311
40.745700	2.031140	0.020311
40.721300	2.031230	0.020312
40.697000	2.031360	0.020314
40.672400	2.031480	0.020315
40.648200	2.031650	0.020317
40.625900	2.031840	0.020318
40.602800	2.032040	0.020320
40.579000	2.032230	0.020322
40.554900	2.032430	0.020324
40.530000	2.032620	0.020326
40.506000	2.032690	0.020327
40.481700	2.032760	0.020328
40.458200	2.032810	0.020328
40.433800	2.032830	0.020328
40.408900	2.032840	0.020328
40.383500	2.032840	0.020328
40.359700	2.032830	0.020328
40.335000	2.032800	0.020328
40.310600	2.032750	0.020328
40.285900	2.032700	0.020327
40.261900	2.032640	0.020326
40.237600	2.032570	0.020326
40.213200	2.032500	0.020325
40.189000	2.032430	0.020324
40.165100	2.032360	0.020324
40.141500	2.032290	0.020323
40.116400	2.032200	0.020322
40.091800	2.032140	0.020321
40.068600	2.032090	0.020321
40.042600	2.032050	0.020321
40.019400	2.032030	0.020320
39.996500	2.032040	0.020320
39.974300	2.032070	0.020321
39.952400	2.032140	0.020321
39.930900	2.032230	0.020322
39.909500	2.032340	0.020323
39.889200	2.032560	0.020326
39.867900	2.032740	0.020327
39.846700	2.032910	0.020329
39.828200	2.033030	0.020330
39.808600	2.033060	0.020331
39.788600	2.033060	0.020331
39.769000	2.032980	0.020330
39.748100	2.032850	0.020329
39.726900	2.032670	0.020327
39.705700	2.032430	0.020324
39.683100	2.032150	0.020322
39.660800	2.031840	0.020318
39.639600	2.031510	0.020315
39.618500	2.031180	0.020312
39.596400	2.030850	0.020309
39.573900	2.030540	0.020305
39.551500	2.030250	0.020303
39.529900	2.029990	0.020300
39.508000	2.029760	0.020298
39.484800	2.029480	0.020295
39.462400	2.029320	0.020293
39.440400	2.029190	0.020292
39.417900	2.029110	0.020291
39.395400	2.029060	0.020291
39.376000	2.029060	0.020291
39.354800	2.029170	0.020292
39.334600	2.029210	0.020292
39.314400	2.029300	0.020293
39.294300	2.029420	0.020294
39.273200	2.029560	0.020296
39.252200	2.029730	0.020297
39.232000	2.029910	0.020299
39.211800	2.030080	0.020301
39.192500	2.030230	0.020302
39.172700	2.030370	0.020304
39.152500	2.030480	0.020305
39.134300	2.030560	0.020306
39.116400	2.030620	0.020306
39.100100	2.030650	0.020307
39.084300	2.030650	0.020307
39.069500	2.030630	0.020306
39.053600	2.030600	0.020306
39.037400	2.030550	0.020306
39.022800	2.030500	0.020305
39.006900	2.030450	0.020305
38.991500	2.030380	0.020304
38.976400	2.030310	0.020303
38.963400	2.030240	0.020302
38.950500	2.030170	0.020302
38.936600	2.030080	0.020301
38.923200	2.030010	0.020300
38.909700	2.029930	0.020299
38.895400	2.029890	0.020299
38.882500	2.029880	0.020299
38.867700	2.029880	0.020299
38.853700	2.029900	0.020299
38.840200	2.029960	0.020300
38.826800	2.030070	0.020301
38.813800	2.030200	0.020302
38.800800	2.030350	0.020304
38.787800	2.030520	0.020305
38.774100	2.030700	0.020307
38.760700	2.030870	0.020309
38.746300	2.031030	0.020310
38.733000	2.031180	0.020312
38.719800	2.031310	0.020313
38.707900	2.031410	0.020314
38.695600	2.031490	0.020315
38.683600	2.031530	0.020315
38.671500	2.031550	0.020316
38.658200	2.031560	0.020316
38.644800	2.031550	0.020316
38.632200	2.031530	0.020315
38.618800	2.031500	0.020315
38.605700	2.031570	0.020316
38.592200	2.031570	0.020316
38.579700	2.031510	0.020315
38.568000	2.031400	0.020314
38.553600	2.031330	0.020313
38.541100	2.031210	0.020312
38.528700	2.031090	0.020311
38.515600	2.031010	0.020310
38.503600	2.030940	0.020309
38.492600	2.030890	0.020309
38.480900	2.030870	0.020309
38.468300	2.030870	0.020309
38.457600	2.030900	0.020309
38.445000	2.030950	0.020310
38.433800	2.031020	0.020310
38.422100	2.031110	0.020311
38.410400	2.031230	0.020312
38.400100	2.031330	0.020313
38.389600	2.031410	0.020314
38.378500	2.031460	0.020315
38.368000	2.031470	0.020315
38.356500	2.031410	0.020314
38.345200	2.031310	0.020313
38.334800	2.031140	0.020311
38.325200	2.030930	0.020309
38.313600	2.030660	0.020307
38.303900	2.030290	0.020303
38.293600	2.029920	0.020299
38.283600	2.029530	0.020295
38.272700	2.029070	0.020291
38.263200	2.028670	0.020287
38.253000	2.028260	0.020283
38.242600	2.027890	0.020279
38.231900	2.027600	0.020276
38.221200	2.027350	0.020274
38.211300	2.027150	0.020272
38.201900	2.026980	0.020270
38.190100	2.026840	0.020268
38.178400	2.026750	0.020268
38.165900	2.026710	0.020267
38.153100	2.026720	0.020267
38.140600	2.026770	0.020268
38.128600	2.026870	0.020269
38.117300	2.027010	0.020270
38.105100	2.027190	0.020272
38.092300	2.027480	0.020275
38.079600	2.027710	0.020277
38.067300	2.027960	0.020280
38.053900	2.028200	0.020282
38.041100	2.028430	0.020284
38.028200	2.028650	0.020287
38.014900	2.028780	0.020288
38.001100	2.028920	0.020289
37.990000	2.029020	0.020290
37.976600	2.029080	0.020291
37.965200	2.029150	0.020292
37.953600	2.029160	0.020292
37.940400	2.029180	0.020292
37.928800	2.029120	0.020291
37.917000	2.029120	0.020291
37.904900	2.029120	0.020291
37.893200	2.029110	0.020291
37.882000	2.029110	0.020291
37.870200	2.029110	0.020291
37.858900	2.029110	0.020291
37.846800	2.029110	0.020291
37.835900	2.029100	0.020291
37.824100	2.029100	0.020291
37.813100	2.029100	0.020291
37.802400	2.029110	0.020291
37.791100	2.029130	0.020291
37.780600	2.029170	0.020292
37.769600	2.029220	0.020292
37.757300	2.029310	0.020293
37.744800	2.029420	0.020294
37.732000	2.029590	0.020296
37.717500	2.029760	0.020298
37.703800	2.029950	0.020300
37.689100	2.030100	0.020301
37.674500	2.030220	0.020302
37.659400	2.030250	0.020303
37.643100	2.030340	0.020303
37.627900	2.030380	0.020304
37.613400	2.030390	0.020304
37.597600	2.030390	0.020304
37.583200	2.030370	0.020304
37.570200	2.030340	0.020303
37.554500	2.030300	0.020303
37.540800	2.030260	0.020303
37.526300	2.030210	0.020302
37.512900	2.030160	0.020302
37.500000	2.030100	0.020301
37.486800	2.030040	0.020300
37.474500	2.029980	0.020300
37.463600	2.029930	0.020299
37.453800	2.029870	0.020299
37.444000	2.029810	0.020298
37.433200	2.029760	0.020298
37.422400	2.029700	0.020297
37.412100	2.029650	0.020297
37.401000	2.029600	0.020296
37.390900	2.029580	0.020296
37.382000	2.029610	0.020296
37.372400	2.029690	0.020297
37.364800	2.029740	0.020297
37.356400	2.029810	0.020298
37.348500	2.029890	0.020299
37.340100	2.029940	0.020299
37.332500	2.029990	0.020300
37.324700	2.030040	0.020300
37.316800	2.030100	0.020301
37.308500	2.030130	0.020301
37.300600	2.030140	0.020301
37.292300	2.030120	0.020301
37.284200	2.030050	0.020301
37.276100	2.029950	0.020300
37.267000	2.029800	0.020298
37.258600	2.029620	0.020296
37.250100	2.029420	0.020294
37.241300	2.029210	0.020292
37.233900	2.029010	0.020290
37.225800	2.028810	0.020288
37.217000	2.028610	0.020286
37.209000	2.028440	0.020284
37.200400	2.028280	0.020283
37.191700	2.028130	0.020281
37.183100	2.028000	0.020280
37.175900	2.027900	0.020279
37.166700	2.027860	0.020279
37.160100	2.027870	0.020279
37.154000	2.027880	0.020279
37.147400	2.027900	0.020279
37.142700	2.027930	0.020279
37.136900	2.027920	0.020279
37.130600	2.027900	0.020279
37.124300	2.027920	0.020279
37.117900	2.028000	0.020280
37.110600	2.028130	0.020281
37.103700	2.028300	0.020283
37.095700	2.028460	0.020285
37.089000	2.028620	0.020286
37.081300	2.028760	0.020288
37.073900	2.028890	0.020289
37.066600	2.028990	0.020290
37.059500	2.029060	0.020291
37.052800	2.029110	0.020291
37.046500	2.029120	0.020291
37.040700	2.029120	0.020291
37.035600	2.029110	0.020291
37.031200	2.029080	0.020291
37.027500	2.029040	0.020290
37.025400	2.028990	0.020290
37.023100	2.028950	0.020290
37.021600	2.028910	0.020289
37.019700	2.028850	0.020289
37.017600	2.028770	0.020288
37.018500	2.028680	0.020287
37.017900	2.028570	0.020286
37.017600	2.028530	0.020285
37.019600	2.028410	0.020284
37.018800	2.028300	0.020283
37.017300	2.028140	0.020281
37.017200	2.028050	0.020281
37.016100	2.027990	0.020280
37.015000	2.027980	0.020280
37.013900	2.028040	0.020280
37.013000	2.028120	0.020281
37.012200	2.028230	0.020282
37.011300	2.028340	0.020283
37.009400	2.028470	0.020285
37.009100	2.028600	0.020286
37.009000	2.028720	0.020287
37.009500	2.028830	0.020288
37.010400	2.028910	0.020289
37.009500	2.028960	0.020290
37.010800	2.028960	0.020290
37.010900	2.028960	0.020290
37.010000	2.028940	0.020289
37.008800	2.028900	0.020289
37.006700	2.028840	0.020288
37.005200	2.028810	0.020288
37.003800	2.028730	0.020287
37.002200	2.028620	0.020286
37.000000	2.028500	0.020285
36.997500	2.028360	0.020284
36.995600	2.028210	0.020282
36.993300	2.028050	0.020281
36.991800	2.027880	0.020279
36.990400	2.027700	0.020277
36.989400	2.027530	0.020275
36.988000	2.027340	0.020273
36.987200	2.027170	0.020272
36.986000	2.027000	0.020270
36.985100	2.026820	0.020268
36.985400	2.026640	0.020266
36.985600	2.026470	0.020265
36.987200	2.026300	0.020263
36.989000	2.026130	0.020261
36.990200	2.025960	0.020260
36.992200	2.025780	0.020258
36.994000	2.025620	0.020256
36.997600	2.025440	0.020254
37.001000	2.025250	0.020253
37.005300	2.025030	0.020250
37.010200	2.024800	0.020248
37.015200	2.024550	0.020246
37.020900	2.024280	0.020243
37.026400	2.024000	0.020240
37.032200	2.023750	0.020238
37.040100	2.023460	0.020235
37.048400	2.023150	0.020232
37.057600	2.022880	0.020229
37.067200	2.022830	0.020228
37.077700	2.023010	0.020230
37.090200	2.023400	0.020234
37.101500	2.023920	0.020239
37.114300	2.024480	0.020245
37.127000	2.025050	0.020251
37.140500	2.025640	0.020256
37.154400	2.026220	0.020262
37.168600	2.026810	0.020268
37.184100	2.027390	0.020274
37.201200	2.027970	0.020280
37.218800	2.028550	0.020286
37.236900	2.029110	0.020291
37.255500	2.029680	0.020297
37.276500	2.030220	0.020302
37.298100	2.030700	0.020307
37.319800	2.031000	0.020310
37.344200	2.031180	0.020312
37.369700	2.031200	0.020312
37.395300	2.031100	0.020311
37.422500	2.030910	0.020309
37.450900	2.030700	0.020307
37.478200	2.030530	0.020305
37.508500	2.030340	0.020303
37.541300	2.030140	0.020301
37.575200	2.029920	0.020299
37.610900	2.029680	0.020297
37.648700	2.029460	0.020295
37.687800	2.029280	0.020293
37.728400	2.029160	0.020292
37.771100	2.029110	0.020291
37.815100	2.029130	0.020291
37.860500	2.029220	0.020292
37.906400	2.029370	0.020294
37.954100	2.029590	0.020296
38.002900	2.029850	0.020299
38.052700	2.030130	0.020301
38.105300	2.030430	0.020304
38.158500	2.030720	0.020307
38.212800	2.031000	0.020310
38.268900	2.031260	0.020313
38.327800	2.031500	0.020315
38.387900	2.031730	0.020317
38.449600	2.031930	0.020319
38.514100	2.032110	0.020321
38.579700	2.032270	0.020323
38.647100	2.032410	0.020324
38.716800	2.032530	0.020325
38.785100	2.032720	0.020327
38.855600	2.032850	0.020329
38.927100	2.032890	0.020329
38.998700	2.032880	0.020329
39.070400	2.032830	0.020328
39.145000	2.032690	0.020327
39.219700	2.032520	0.020325
39.296000	2.032320	0.020323
39.373600	2.032090	0.020321
39.451800	2.031830	0.020318
39.530900	2.031560	0.020316
39.611100	2.031270	0.020313
39.693100	2.030960	0.020310
39.777600	2.030610	0.020306
39.863000	2.030250	0.020303
39.950600	2.029910	0.020299
40.037600	2.029590	0.020296
40.124700	2.029390	0.020294
40.212500	2.029390	0.020294
40.300000	2.029570	0.020296
40.388200	2.029920	0.020299
40.476000	2.030320	0.020303
40.566000	2.030850	0.020309
40.656400	2.031300	0.020313
40.746800	2.031750	0.020318
40.839600	2.032180	0.020322
40.933300	2.032590	0.020326
41.029600	2.033010	0.020330
41.127200	2.033400	0.020334
41.225000	2.033770	0.020338
41.325900	2.034060	0.020341
41.427100	2.034190	0.020342
41.530300	2.034140	0.020341
41.633400	2.033930	0.020339
41.737500	2.033620	0.020336
41.843100	2.033290	0.020333
41.948000	2.032960	0.020330
42.054600	2.032640	0.020326
42.162100	2.032350	0.020324
42.271600	2.032100	0.020321
42.382200	2.031920	0.020319
42.490800	2.031850	0.020319
42.601600	2.031900	0.020319
42.713200	2.032050	0.020321
42.824800	2.032330	0.020323
42.936200	2.032630	0.020326
43.047200	2.033010	0.020330
43.159800	2.033430	0.020334
43.271400	2.033850	0.020339
43.382900	2.034300	0.020343
43.496400	2.034740	0.020347
43.609100	2.035120	0.020351
43.721900	2.035270	0.020353
43.835600	2.035170	0.020352
43.948500	2.034840	0.020348
44.061800	2.034360	0.020344
44.174000	2.033820	0.020338
44.284300	2.033240	0.020332
44.392600	2.032640	0.020326
44.504200	2.032010	0.020320
44.613300	2.031380	0.020314
44.720400	2.030750	0.020308
44.832000	2.030110	0.020301
44.943400	2.029490	0.020295
45.055400	2.028900	0.020289
45.166500	2.028330	0.020283
45.278200	2.027790	0.020278
45.388800	2.027330	0.020273
45.497600	2.027050	0.020271
45.604800	2.026990	0.020270
45.712900	2.027140	0.020271
45.815900	2.027490	0.020275
45.919300	2.027820	0.020278
46.021200	2.028360	0.020284
46.122600	2.028960	0.020290
46.226000	2.029590	0.020296
46.330400	2.030230	0.020302
46.434200	2.030850	0.020309
46.540500	2.031440	0.020314
46.647400	2.031960	0.020320
46.756900	2.032400	0.020324
46.866600	2.032750	0.020328
46.974300	2.032990	0.020330
47.082700	2.033140	0.020331
47.191300	2.033190	0.020332
47.300300	2.033170	0.020332
47.409400	2.033080	0.020331
47.517800	2.032940	0.020329
47.625500	2.032800	0.020328
47.732800	2.032650	0.020327
47.840000	2.032500	0.020325
47.947800	2.032370	0.020324
48.056400	2.032270	0.020323
48.166100	2.032200	0.020322
48.279600	2.032130	0.020321
48.394000	2.032070	0.020321
48.509200	2.032010	0.020320
48.623800	2.031950	0.020320
48.737600	2.031880	0.020319
48.849900	2.031820	0.020318
48.960800	2.031640	0.020316
49.073200	2.031530	0.020315
49.187200	2.031440	0.020314
49.300300	2.031320	0.020313
49.414900	2.030970	0.020310
49.527900	2.030820	0.020308
49.640200	2.030680	0.020307
49.752400	2.030560	0.020306
49.866900	2.030450	0.020305
49.978600	2.030390	0.020304
50.088600	2.030350	0.020304
50.196900	2.030320	0.020303
50.301500	2.030330	0.020303
50.408500	2.030390	0.020304
50.516400	2.030510	0.020305
50.624400	2.030640	0.020306
50.733700	2.030810	0.020308
50.841500	2.030930	0.020309
50.946100	2.030890	0.020309
51.051500	2.030660	0.020307
51.159500	2.030290	0.020303
51.266900	2.029880	0.020299
51.373400	2.029340	0.020293
51.480300	2.028890	0.020289
51.582900	2.028440	0.020284
51.686700	2.028010	0.020280
51.792400	2.027610	0.020276
51.898500	2.027220	0.020272
52.004200	2.026870	0.020269
52.110100	2.026580	0.020266
52.215400	2.026390	0.020264
52.320900	2.026380	0.020264
52.428400	2.026580	0.020266
52.537400	2.026970	0.020270
52.643500	2.027480	0.020275
52.751800	2.028030	0.020280
52.861600	2.028570	0.020286
52.968100	2.029150	0.020292
53.075000	2.029730	0.020297
53.181800	2.030280	0.020303
53.289200	2.030780	0.020308
53.396600	2.031170	0.020312
53.505600	2.031440	0.020314
53.615800	2.031590	0.020316
53.727400	2.031590	0.020316
53.837700	2.031560	0.020316
53.952600	2.031430	0.020314
54.068500	2.031230	0.020312
54.185900	2.030950	0.020310
54.303100	2.030650	0.020307
54.417000	2.030340	0.020303
54.531400	2.030020	0.020300
54.647300	2.029710	0.020297
54.761500	2.029410	0.020294
54.876300	2.029120	0.020291
54.986400	2.028880	0.020289
55.095500	2.028680	0.020287
55.207600	2.028530	0.020285
55.317800	2.028440	0.020284
55.428200	2.028400	0.020284
55.539300	2.028410	0.020284
55.650500	2.028470	0.020285
55.762700	2.028580	0.020286
55.875500	2.028720	0.020287
55.989300	2.028880	0.020289
56.104200	2.029070	0.020291
56.219600	2.029280	0.020293
56.335700	2.029360	0.020294
56.450400	2.029520	0.020295
56.562900	2.029630	0.020296
56.675000	2.029700	0.020297
56.788800	2.029720	0.020297
56.901900	2.029850	0.020299
57.016900	2.029820	0.020298
57.129900	2.029730	0.020297
57.246100	2.029590	0.020296
57.362500	2.029440	0.020294
57.477200	2.029300	0.020293
57.592600	2.029160	0.020292
57.708000	2.029050	0.020291
57.823000	2.028950	0.020290
57.938200	2.028860	0.020289
58.053700	2.028800	0.020288
58.168500	2.028750	0.020288
58.284500	2.028690	0.020287
58.402800	2.028630	0.020286
58.523400	2.028550	0.020286
58.646400	2.028470	0.020285
58.767800	2.028350	0.020284
58.885200	2.028220	0.020282
59.003200	2.028050	0.020281
59.123000	2.027890	0.020279
59.239700	2.027670	0.020277
59.359700	2.027450	0.020275
59.481500	2.027230	0.020272
59.601400	2.027030	0.020270
59.721200	2.026840	0.020268
59.843900	2.026690	0.020267
59.967100	2.026590	0.020266
60.094800	2.026570	0.020266
60.218800	2.026580	0.020266
60.343100	2.026640	0.020266
60.464700	2.026750	0.020268
60.583700	2.026970	0.020270
60.705100	2.027400	0.020274
60.828600	2.027670	0.020277
60.953300	2.027960	0.020280
61.077200	2.028260	0.020283
61.201700	2.028540	0.020285
61.325800	2.028800	0.020288
61.449600	2.029040	0.020290
61.575400	2.029280	0.020293
61.699600	2.029490	0.020295
61.823700	2.029680	0.020297
61.948600	2.029820	0.020298
62.071700	2.029910	0.020299
62.193400	2.029930	0.020299
62.314400	2.029870	0.020299
62.435200	2.029780	0.020298
62.556400	2.029670	0.020297
62.677800	2.029550	0.020296
62.798300	2.029410	0.020294
62.918300	2.029280	0.020293
63.037200	2.029160	0.020292
63.156800	2.029070	0.020291
63.278700	2.029020	0.020290
63.398300	2.029000	0.020290
63.517200	2.029020	0.020290
63.636400	2.029050	0.020291
63.755200	2.029090	0.020291
63.875000	2.029150	0.020292
63.996800	2.029270	0.020293
64.116100	2.029350	0.020294
64.237100	2.029460	0.020295
64.357800	2.029590	0.020296
64.478200	2.029760	0.020298
64.597400	2.029940	0.020299
64.716300	2.030100	0.020301
64.834900	2.030230	0.020302
64.953500	2.030350	0.020304
65.071100	2.030420	0.020304
65.188400	2.030480	0.020305
65.305200	2.030520	0.020305
65.421800	2.030560	0.020306
65.538000	2.030600	0.020306
65.653300	2.030620	0.020306
65.767900	2.030640	0.020306
65.882700	2.030640	0.020306
65.997000	2.030640	0.020306
66.114200	2.030650	0.020307
66.228500	2.030660	0.020307
66.341000	2.030700	0.020307
66.454500	2.030750	0.020308
66.566900	2.030820	0.020308
66.679200	2.030920	0.020309
66.791700	2.031050	0.020311
66.905000	2.031190	0.020312
67.018100	2.031350	0.020314
67.130400	2.031530	0.020315
67.244200	2.031710	0.020317
67.356800	2.031890	0.020319
67.468000	2.032050	0.020321
67.579300	2.032190	0.020322
67.690700	2.032320	0.020323
67.805700	2.032450	0.020325
67.920500	2.032570	0.020326
68.034400	2.032690	0.020327
68.151600	2.032940	0.020329
68.269400	2.033090	0.020331
68.385000	2.033220	0.020332
68.501800	2.033310	0.020333
68.620500	2.033360	0.020334
68.737000	2.033290	0.020333
68.854000	2.033220	0.020332
68.971400	2.033120	0.020331
69.090500	2.032980	0.020330
69.208400	2.032810	0.020328
69.328300	2.032630	0.020326
69.450400	2.032440	0.020324
69.570100	2.032260	0.020323
69.688400	2.032090	0.020321
69.806100	2.031930	0.020319
69.924100	2.031800	0.020318
70.042000	2.031680	0.020317
70.160000	2.031580	0.020316
70.278800	2.031480	0.020315
70.396600	2.031390	0.020314
70.515700	2.031290	0.020313
70.635800	2.031210	0.020312
70.755100	2.031120	0.020311
70.875700	2.031040	0.020310
70.998700	2.030940	0.020309
71.121800	2.030880	0.020309
71.245500	2.030800	0.020308
71.369400	2.030700	0.020307
71.493200	2.030610	0.020306
71.616500	2.030510	0.020305
71.737300	2.030440	0.020304
71.860800	2.030360	0.020304
71.984100	2.030210	0.020302
72.108800	2.030050	0.020301
72.229700	2.029880	0.020299
72.349400	2.029660	0.020297
72.471500	2.029400	0.020294
72.594000	2.029200	0.020292
72.715100	2.029080	0.020291
72.833000	2.029030	0.020290
72.953300	2.029050	0.020291
73.072700	2.029160	0.020292
73.190600	2.029320	0.020293
73.307200	2.029560	0.020296
73.426300	2.029830	0.020298
73.544300	2.030140	0.020301
73.664400	2.030460	0.020305
73.785400	2.030780	0.020308
73.904000	2.031100	0.020311
74.021400	2.031420	0.020314
74.140800	2.031750	0.020318
74.258900	2.032100	0.020321
74.377700	2.032430	0.020324
74.496200	2.032770	0.020328
74.614200	2.033100	0.020331
74.733500	2.033410	0.020334
74.852900	2.033690	0.020337
74.971800	2.033930	0.020339
75.091300	2.034120	0.020341
75.211100	2.034270	0.020343
75.329000	2.034380	0.020344
75.446800	2.034480	0.020345
75.565800	2.034510	0.020345
75.689100	2.034490	0.020345
75.810700	2.034370	0.020344
75.929100	2.034240	0.020342
76.047900	2.034030	0.020340
76.166200	2.033740	0.020337
76.285000	2.033340	0.020333
76.406300	2.032840	0.020328
76.527800	2.032260	0.020323
76.649200	2.031610	0.020316
76.769200	2.030930	0.020309
76.888400	2.030250	0.020303
77.006500	2.029580	0.020296
77.126300	2.028950	0.020290
77.244000	2.028340	0.020283
77.361700	2.027780	0.020278
77.478500	2.027300	0.020273
77.593700	2.026920	0.020269
77.708100	2.026670	0.020267
77.822700	2.026520	0.020265
77.935600	2.026500	0.020265
78.048600	2.026580	0.020266
78.159900	2.026760	0.020268
78.269500	2.027020	0.020270
78.379700	2.027320	0.020273
78.490100	2.027800	0.020278
78.600200	2.028160	0.020282
78.709900	2.028500	0.020285
78.819400	2.028830	0.020288
78.929300	2.029170	0.020292
79.038900	2.029450	0.020295
79.150800	2.029720	0.020297
79.263200	2.029960	0.020300
79.374200	2.030120	0.020301
79.483900	2.030200	0.020302
79.594100	2.030240	0.020302
79.705500	2.030200	0.020302
79.817600	2.030090	0.020301
79.929600	2.029910	0.020299
80.044000	2.029680	0.020297
80.157200	2.029430	0.020294
80.269300	2.029170	0.020292
80.383900	2.028910	0.020289
80.500000	2.028740	0.020287
80.613300	2.028520	0.020285
80.729500	2.028310	0.020283
80.844100	2.028110	0.020281
80.961900	2.027910	0.020279
81.081400	2.027690	0.020277
81.198300	2.027490	0.020275
81.315400	2.027290	0.020273
81.437100	2.027090	0.020271
81.560800	2.026910	0.020269
81.682800	2.026760	0.020268
81.805700	2.026660	0.020267
81.929800	2.026640	0.020266
82.054800	2.026720	0.020267
82.178700	2.026870	0.020269
82.303000	2.027100	0.020271
82.424700	2.027410	0.020274
82.545100	2.027740	0.020277
82.668300	2.028160	0.020282
82.792500	2.028630	0.020286
82.915100	2.029100	0.020291
83.038500	2.029610	0.020296
83.160800	2.030140	0.020301
83.284200	2.030660	0.020307
83.407700	2.031180	0.020312
83.532600	2.031640	0.020316
83.658700	2.032070	0.020321
83.783900	2.032470	0.020325
83.906700	2.032800	0.020328
84.027800	2.033070	0.020331
84.149500	2.033280	0.020333
84.272000	2.033420	0.020334
84.392500	2.033450	0.020335
84.508800	2.033340	0.020333
84.626300	2.033100	0.020331
84.747400	2.032750	0.020328
84.867000	2.032290	0.020323
84.986600	2.031760	0.020318
85.106100	2.031170	0.020312
85.223500	2.030530	0.020305
85.341000	2.029870	0.020299
85.458600	2.029250	0.020293
85.576000	2.028670	0.020287
85.691700	2.028160	0.020282
85.808300	2.027760	0.020278
85.921900	2.027430	0.020274
86.036800	2.027200	0.020272
86.151800	2.027080	0.020271
86.267000	2.027000	0.020270
86.381800	2.027030	0.020270
86.496100	2.027110	0.020271
86.611400	2.027220	0.020272
86.726000	2.027330	0.020273
86.839900	2.027430	0.020274
86.955000	2.027520	0.020275
87.071300	2.027590	0.020276
87.186500	2.027590	0.020276
87.301800	2.027600	0.020276
87.416400	2.027600	0.020276
87.531600	2.027590	0.020276
87.646700	2.027580	0.020276
87.762700	2.027560	0.020276
87.878300	2.027560	0.020276
87.991200	2.027610	0.020276
88.103000	2.027680	0.020277
88.216300	2.027830	0.020278
88.329700	2.028020	0.020280
88.442200	2.028250	0.020283
88.554700	2.028500	0.020285
88.665500	2.028760	0.020288
88.776500	2.029010	0.020290
88.884500	2.029270	0.020293
88.993600	2.029480	0.020295
89.103100	2.029640	0.020296
89.211400	2.029710	0.020297
89.321100	2.029720	0.020297
89.431600	2.029650	0.020297
89.540100	2.029500	0.020295
89.650000	2.029260	0.020293
89.760800	2.028930	0.020289
89.869100	2.028550	0.020286
89.977600	2.028140	0.020281
90.086300	2.027570	0.020276
90.192200	2.027120	0.020271
90.299100	2.026700	0.020267
90.406800	2.026300	0.020263
90.514900	2.025920	0.020259
90.624300	2.025620	0.020256
90.733600	2.025400	0.020254
90.843300	2.025250	0.020253
90.953300	2.025210	0.020252
91.063900	2.025260	0.020253
91.174200	2.025370	0.020254
91.284900	2.025560	0.020256
91.396100	2.025800	0.020258
91.507900	2.026100	0.020261
91.620800	2.026430	0.020264
91.734500	2.026770	0.020268
91.848200	2.027110	0.020271
91.961500	2.027450	0.020275
92.072400	2.027770	0.020278
92.182500	2.028070	0.020281
92.294000	2.028340	0.020283
92.407600	2.028580	0.020286
92.522600	2.028800	0.020288
92.637100	2.029000	0.020290
92.751500	2.029150	0.020292
92.865500	2.029280	0.020293
92.979200	2.029400	0.020294
93.093100	2.029520	0.020295
93.206100	2.029610	0.020296
93.319700	2.029640	0.020296
93.433300	2.029620	0.020296
93.547000	2.029490	0.020295
93.662200	2.029300	0.020293
93.776400	2.029040	0.020290
93.890200	2.028700	0.020287
94.004000	2.028370	0.020284
94.120000	2.027950	0.020280
94.235100	2.027490	0.020275
94.350600	2.027040	0.020270
94.467200	2.026590	0.020266
94.583500	2.026150	0.020262
94.698200	2.025720	0.020257
94.813800	2.025310	0.020253
94.930000	2.024950	0.020250
95.043500	2.024660	0.020247
95.158400	2.024440	0.020244
95.274100	2.024320	0.020243
95.389600	2.024300	0.020243
95.506000	2.024380	0.020244
95.622400	2.024560	0.020246
95.739100	2.024830	0.020248
95.855100	2.025180	0.020252
95.970300	2.025580	0.020256
96.085700	2.025910	0.020259
96.200100	2.026380	0.020264
96.315400	2.026880	0.020269
96.430400	2.027400	0.020274
96.546700	2.027920	0.020279
96.662900	2.028450	0.020285
96.779500	2.028960	0.020290
96.897400	2.029430	0.020294
97.015800	2.029810	0.020298
97.133800	2.030100	0.020301
97.253100	2.030300	0.020303
97.371900	2.030380	0.020304
97.493600	2.030360	0.020304
97.616800	2.030280	0.020303
97.739400	2.030090	0.020301
97.863100	2.029860	0.020299
97.988100	2.029630	0.020296
98.110800	2.029410	0.020294
98.232300	2.029210	0.020292
98.357400	2.029050	0.020291
98.482900	2.028920	0.020289
98.608500	2.028810	0.020288
98.732700	2.028710	0.020287
98.858000	2.028630	0.020286
98.983900	2.028550	0.020286
99.110100	2.028490	0.020285
99.235300	2.028430	0.020284
99.359900	2.028380	0.020284
99.485500	2.028320	0.020283
99.610700	2.028290	0.020283
99.735800	2.028240	0.020282
99.860700	2.028160	0.020282
99.986600	2.028090	0.020281
100.110000	2.028000	0.020280
100.235000	2.027910	0.020279
100.359000	2.027860	0.020279
100.482000	2.027790	0.020278
100.604000	2.027740	0.020277
100.726000	2.027670	0.020277
100.848000	2.027610	0.020276
100.970000	2.027500	0.020275
101.091000	2.027360	0.020274
101.211000	2.027210	0.020272
101.331000	2.027020	0.020270
101.449000	2.026830	0.020268
101.569000	2.026590	0.020266
101.687000	2.026360	0.020264
101.805000	2.026140	0.020261
101.924000	2.026050	0.020261
102.042000	2.026100	0.020261
102.160000	2.026280	0.020263
102.278000	2.026540	0.020265
102.397000	2.026850	0.020269
102.516000	2.027140	0.020271
102.635000	2.027390	0.020274
102.754000	2.027580	0.020276
102.874000	2.027710	0.020277
102.994000	2.027780	0.020278
103.115000	2.027800	0.020278
103.236000	2.027780	0.020278
103.357000	2.027580	0.020276
103.479000	2.027490	0.020275
103.601000	2.027400	0.020274
103.723000	2.027330	0.020273
103.846000	2.027260	0.020273
103.970000	2.027210	0.020272
104.095000	2.027210	0.020272
104.220000	2.027260	0.020273
104.345000	2.027330	0.020273
104.471000	2.027460	0.020275
104.597000	2.027620	0.020276
104.725000	2.027820	0.020278
104.854000	2.028040	0.020280
104.984000	2.028270	0.020283
105.114000	2.028490	0.020285
105.244000	2.028670	0.020287
105.372000	2.028830	0.020288
105.500000	2.028970	0.020290
105.630000	2.029080	0.020291
105.759000	2.029150	0.020292
105.889000	2.029140	0.020291
106.019000	2.029040	0.020290
106.150000	2.028840	0.020288
106.280000	2.028550	0.020286
106.411000	2.028210	0.020282
106.542000	2.027840	0.020278
106.674000	2.027460	0.020275
106.803000	2.027090	0.020271
106.932000	2.026710	0.020267
107.060000	2.026360	0.020264
107.186000	2.026060	0.020261
107.310000	2.025810	0.020258
107.436000	2.025650	0.020257
107.563000	2.025580	0.020256
107.687000	2.025620	0.020256
107.812000	2.025820	0.020258
107.937000	2.025990	0.020260
108.065000	2.026160	0.020262
108.191000	2.026300	0.020263
108.317000	2.026420	0.020264
108.443000	2.026640	0.020266
108.570000	2.026700	0.020267
108.696000	2.026710	0.020267
108.821000	2.026670	0.020267
108.948000	2.026580	0.020266
109.076000	2.026410	0.020264
109.204000	2.026180	0.020262
109.331000	2.025900	0.020259
109.462000	2.025590	0.020256
109.592000	2.025220	0.020252
109.722000	2.024830	0.020248
109.852000	2.024420	0.020244
109.983000	2.024000	0.020240
110.114000	2.023570	0.020236
110.245000	2.023140	0.020231
110.376000	2.022720	0.020227
110.509000	2.022290	0.020223
110.641000	2.021870	0.020219
110.774000	2.021470	0.020215
110.906000	2.021120	0.020211
111.039000	2.020840	0.020208
111.171000	2.020640	0.020206
111.306000	2.020550	0.020206
111.439000	2.020540	0.020205
111.572000	2.020640	0.020206
111.706000	2.020840	0.020208
111.837000	2.021150	0.020212
111.967000	2.021490	0.020215
112.096000	2.021850	0.020219
112.225000	2.022220	0.020222
112.354000	2.022580	0.020226
112.483000	2.022960	0.020230
112.615000	2.023320	0.020233
112.745000	2.023670	0.020237
112.874000	2.023970	0.020240
113.005000	2.024190	0.020242
113.135000	2.024410	0.020244
113.266000	2.024610	0.020246
113.397000	2.024820	0.020248
113.528000	2.025030	0.020250
113.660000	2.025250	0.020253
113.791000	2.025500	0.020255
113.923000	2.025750	0.020258
114.054000	2.026050	0.020261
114.186000	2.026350	0.020264
114.316000	2.026670	0.020267
114.446000	2.026980	0.020270
114.580000	2.027250	0.020273
114.714000	2.027360	0.020274
114.849000	2.027310	0.020273
114.982000	2.027080	0.020271
115.117000	2.026710	0.020267
115.253000	2.026180	0.020262
115.389000	2.025620	0.020256
115.524000	2.025070	0.020251
115.658000	2.024550	0.020246
115.791000	2.024080	0.020241
115.924000	2.023640	0.020236
116.056000	2.023240	0.020232
116.189000	2.022880	0.020229
116.321000	2.022690	0.020227
116.453000	2.022390	0.020224
116.587000	2.022080	0.020221
116.722000	2.021750	0.020218
116.858000	2.021440	0.020214
116.994000	2.021100	0.020211
117.130000	2.020710	0.020207
117.264000	2.020280	0.020203
117.398000	2.019790	0.020198
117.532000	2.019270	0.020193
117.665000	2.018750	0.020188
117.799000	2.018240	0.020182
117.932000	2.017870	0.020179
118.065000	2.017660	0.020177
118.198000	2.017640	0.020176
118.331000	2.017790	0.020178
118.465000	2.018050	0.020181
118.600000	2.018360	0.020184
118.732000	2.018720	0.020187
118.865000	2.019110	0.020191
118.996000	2.019550	0.020196
119.127000	2.020060	0.020201
119.259000	2.020860	0.020209
119.390000	2.021530	0.020215
119.522000	2.022210	0.020222
119.656000	2.022910	0.020229
119.791000	2.023610	0.020236
119.926000	2.024290	0.020243
120.061000	2.024900	0.020249
120.197000	2.025370	0.020254
120.333000	2.025630	0.020256
120.470000	2.025660	0.020257
120.607000	2.025440	0.020254
120.744000	2.024990	0.020250
120.882000	2.024360	0.020244
121.019000	2.023530	0.020235
121.157000	2.022690	0.020227
121.294000	2.021830	0.020218
121.431000	2.020990	0.020210
121.569000	2.020240	0.020202
121.706000	2.019600	0.020196
121.846000	2.019080	0.020191
121.987000	2.018690	0.020187
122.128000	2.018440	0.020184
122.270000	2.018310	0.020183
122.412000	2.018310	0.020183
122.553000	2.018410	0.020184
122.691000	2.018600	0.020186
122.832000	2.018830	0.020188
122.972000	2.019110	0.020191
123.112000	2.019400	0.020194
123.250000	2.019720	0.020197
123.385000	2.020040	0.020200
123.520000	2.020480	0.020205
123.654000	2.020850	0.020209
123.788000	2.021220	0.020212
123.923000	2.021620	0.020216
124.057000	2.022050	0.020221
124.191000	2.022460	0.020225
124.325000	2.022840	0.020228
124.459000	2.023140	0.020231
124.590000	2.023340	0.020233
124.719000	2.023400	0.020234
124.848000	2.023340	0.020233
124.979000	2.023130	0.020231
125.113000	2.022780	0.020228
125.246000	2.022290	0.020223
125.379000	2.021730	0.020217
125.515000	2.021120	0.020211
125.649000	2.020500	0.020205
125.784000	2.019870	0.020199
125.923000	2.019260	0.020193
126.061000	2.018660	0.020187
126.199000	2.018080	0.020181
126.338000	2.017550	0.020176
126.475000	2.017070	0.020171
126.613000	2.016610	0.020166
126.749000	2.016230	0.020162
126.885000	2.015940	0.020159
127.020000	2.015740	0.020157
127.155000	2.015620	0.020156
127.292000	2.015560	0.020156
127.430000	2.015580	0.020156
127.568000	2.015420	0.020154
127.706000	2.015510	0.020155
127.845000	2.015660	0.020157
127.982000	2.015830	0.020158
128.120000	2.016040	0.020160
128.259000	2.016270	0.020163
128.397000	2.016520	0.020165
128.539000	2.016790	0.020168
128.679000	2.017070	0.020171
128.818000	2.017420	0.020174
128.959000	2.017690	0.020177
129.099000	2.017890	0.020179
129.241000	2.018030	0.020180
129.383000	2.018080	0.020181
129.525000	2.018050	0.020181
129.666000	2.017950	0.020180
129.805000	2.017780	0.020178
129.943000	2.017570	0.020176
130.080000	2.017320	0.020173
130.217000	2.017060	0.020171
130.355000	2.016810	0.020168
130.492000	2.016580	0.020166
130.628000	2.016370	0.020164
130.763000	2.016190	0.020162
130.899000	2.016040	0.020160
131.033000	2.015980	0.020160
131.168000	2.015990	0.020160
131.302000	2.016060	0.020161
131.436000	2.016190	0.020162
131.570000	2.016250	0.020163
131.704000	2.016180	0.020162
131.838000	2.016020	0.020160
131.971000	2.015750	0.020158
132.105000	2.015440	0.020154
132.239000	2.015150	0.020152
132.374000	2.014860	0.020149
132.509000	2.014610	0.020146
132.643000	2.014390	0.020144
132.777000	2.014180	0.020142
132.916000	2.013770	0.020138
133.052000	2.013580	0.020136
133.188000	2.013410	0.020134
133.324000	2.013230	0.020132
133.463000	2.013040	0.020130
133.603000	2.012840	0.020128
133.743000	2.012680	0.020127
133.888000	2.012590	0.020126
134.034000	2.012610	0.020126
134.177000	2.012760	0.020128
134.321000	2.013030	0.020130
134.463000	2.013370	0.020134
134.606000	2.013760	0.020138
134.750000	2.014150	0.020142
134.898000	2.014540	0.020145
135.044000	2.014940	0.020149
135.190000	2.015300	0.020153
135.334000	2.015610	0.020156
135.473000	2.015840	0.020158
135.614000	2.015960	0.020160
135.756000	2.015990	0.020160
135.893000	2.015920	0.020159
136.033000	2.015690	0.020157
136.174000	2.015420	0.020154
136.311000	2.015110	0.020151
136.449000	2.014770	0.020148
136.589000	2.014430	0.020144
136.730000	2.014130	0.020141
136.870000	2.013840	0.020138
137.010000	2.013570	0.020136
137.152000	2.013280	0.020133
137.291000	2.012890	0.020129
137.432000	2.012560	0.020126
137.573000	2.012220	0.020122
137.715000	2.011810	0.020118
137.858000	2.011350	0.020114
138.001000	2.010850	0.020109
138.144000	2.010310	0.020103
138.288000	2.009750	0.020098
138.431000	2.009190	0.020092
138.574000	2.008670	0.020087
138.717000	2.008180	0.020082
138.859000	2.007740	0.020077
138.999000	2.007360	0.020074
139.140000	2.007030	0.020070
139.282000	2.006760	0.020068
139.425000	2.006570	0.020066
139.565000	2.006430	0.020064
139.705000	2.006340	0.020063
139.846000	2.006280	0.020063
139.987000	2.006270	0.020063
140.128000	2.006290	0.020063
140.272000	2.006330	0.020063
140.413000	2.006370	0.020064
140.555000	2.006420	0.020064
140.698000	2.006460	0.020065
140.841000	2.006430	0.020064
140.984000	2.006370	0.020064
141.128000	2.006220	0.020062
141.273000	2.006020	0.020060
141.418000	2.005760	0.020058
141.564000	2.005670	0.020057
141.712000	2.005300	0.020053
141.861000	2.004890	0.020049
142.011000	2.004450	0.020045
142.160000	2.003970	0.020040
142.311000	2.003490	0.020035
142.460000	2.002980	0.020030
142.611000	2.002450	0.020025
142.759000	2.001930	0.020019
142.907000	2.001410	0.020014
143.055000	2.000930	0.020009
143.200000	2.000490	0.020005
143.346000	2.000110	0.020001
143.493000	1.999790	0.019998
143.635000	1.999520	0.019995
143.779000	1.999310	0.019993
143.927000	1.999140	0.019991
144.073000	1.999000	0.019990
144.220000	1.998890	0.019989
144.366000	1.998780	0.019988
144.514000	1.998650	0.019987
144.660000	1.998500	0.019985
144.803000	1.998230	0.019982
144.949000	1.998020	0.019980
145.093000	1.997780	0.019978
145.240000	1.997500	0.019975
145.386000	1.997150	0.019972
145.532000	1.996760	0.019968
145.675000	1.996310	0.019963
145.817000	1.995790	0.019958
145.960000	1.995210	0.019952
146.104000	1.994550	0.019946
146.250000	1.993850	0.019939
146.397000	1.993100	0.019931
146.543000	1.992300	0.019923
146.691000	1.991510	0.019915
146.837000	1.990690	0.019907
146.981000	1.989850	0.019899
147.128000	1.988990	0.019890
147.274000	1.988090	0.019881
147.418000	1.987140	0.019871
147.561000	1.986130	0.019861
147.704000	1.985070	0.019851
147.847000	1.983960	0.019840
147.991000	1.982780	0.019828
148.136000	1.981530	0.019815
148.281000	1.980230	0.019802
148.427000	1.978860	0.019789
148.573000	1.977430	0.019774
148.718000	1.975920	0.019759
148.864000	1.974330	0.019743
149.009000	1.972650	0.019727
149.154000	1.970910	0.019709
149.300000	1.969090	0.019691
149.446000	1.967210	0.019672
149.591000	1.965290	0.019653
149.738000	1.963320	0.019633
149.885000	1.961330	0.019613
150.030000	1.959330	0.019593
150.175000	1.957310	0.019573
150.319000	1.955290	0.019553
150.464000	1.953350	0.019534
150.610000	1.951330	0.019513
150.752000	1.949300	0.019493
150.897000	1.947260	0.019473
151.041000	1.945210	0.019452
151.184000	1.943120	0.019431
151.329000	1.941050	0.019411
151.473000	1.938980	0.019390
151.617000	1.936950	0.019370
151.760000	1.934940	0.019349
151.903000	1.932970	0.019330
152.045000	1.931030	0.019310
152.187000	1.929150	0.019292
152.330000	1.927300	0.019273
152.472000	1.925490	0.019255
152.613000	1.923690	0.019237
152.753000	1.921900	0.019219
152.895000	1.920110	0.019201
153.037000	1.918310	0.019183
153.180000	1.916500	0.019165
153.324000	1.914660	0.019147
153.470000	1.912790	0.019128
153.618000	1.910860	0.019109
153.766000	1.908950	0.019090
153.917000	1.906930	0.019069
154.071000	1.904850	0.019049
154.225000	1.902730	0.019027
154.379000	1.900560	0.019006
154.532000	1.898330	0.018983
154.686000	1.896040	0.018960
154.838000	1.893700	0.018937
154.990000	1.891310	0.018913
155.142000	1.888830	0.018888
155.296000	1.886260	0.018863
155.449000	1.883600	0.018836
155.601000	1.880810	0.018808
155.755000	1.877940	0.018779
155.906000	1.874940	0.018749
156.059000	1.871800	0.018718
156.211000	1.868520	0.018685
156.362000	1.865090	0.018651
156.511000	1.861480	0.018615
156.661000	1.857710	0.018577
156.812000	1.853770	0.018538
156.962000	1.849690	0.018497
157.112000	1.845470	0.018455
157.263000	1.841100	0.018411
157.413000	1.836610	0.018366
157.562000	1.832000	0.018320
157.711000	1.827290	0.018273
157.861000	1.822490	0.018225
158.009000	1.817610	0.018176
158.156000	1.812650	0.018127
158.302000	1.807620	0.018076
158.450000	1.802600	0.018026
158.595000	1.797470	0.017975
158.739000	1.792270	0.017923
158.885000	1.787040	0.017870
159.029000	1.781760	0.017818
159.173000	1.776430	0.017764
159.318000	1.771050	0.017711
159.461000	1.765710	0.017657
159.603000	1.760230	0.017602
159.745000	1.754700	0.017547
159.889000	1.749090	0.017491
160.033000	1.743410	0.017434
160.179000	1.737620	0.017376
160.324000	1.731760	0.017318
160.469000	1.725830	0.017258
160.614000	1.719830	0.017198
160.759000	1.713770	0.017138
160.902000	1.707640	0.017076
161.045000	1.701450	0.017015
161.188000	1.695200	0.016952
161.332000	1.688900	0.016889
161.473000	1.682530	0.016825
161.615000	1.676120	0.016761
161.759000	1.669690	0.016697
161.900000	1.663250	0.016633
162.040000	1.656820	0.016568
162.182000	1.650400	0.016504
162.324000	1.643980	0.016440
162.467000	1.637590	0.016376
162.610000	1.631230	0.016312
162.755000	1.624900	0.016249
162.901000	1.618640	0.016186
163.048000	1.612460	0.016125
163.195000	1.606350	0.016064
163.344000	1.600340	0.016003
163.493000	1.594430	0.015944
163.643000	1.588650	0.015887
163.793000	1.582970	0.015830
163.942000	1.577390	0.015774
164.090000	1.571890	0.015719
164.239000	1.566430	0.015664
164.387000	1.561010	0.015610
164.536000	1.555590	0.015556
164.682000	1.550170	0.015502
164.830000	1.544730	0.015447
164.976000	1.539250	0.015393
165.123000	1.533740	0.015337
165.269000	1.528170	0.015282
165.417000	1.522510	0.015225
165.566000	1.516750	0.015168
165.715000	1.510840	0.015108
165.865000	1.504800	0.015048
166.016000	1.498590	0.014986
166.166000	1.492220	0.014922
166.315000	1.485670	0.014857
166.465000	1.478950	0.014790
166.612000	1.472060	0.014721
166.760000	1.464990	0.014650
166.909000	1.457750	0.014578
167.058000	1.450340	0.014503
167.207000	1.442790	0.014428
167.358000	1.435100	0.014351
167.507000	1.427310	0.014273
167.656000	1.419440	0.014194
167.802000	1.411510	0.014115
167.947000	1.403530	0.014035
168.091000	1.395540	0.013955
168.234000	1.387540	0.013875
168.376000	1.379550	0.013796
168.518000	1.371500	0.013715
168.659000	1.363510	0.013635
168.800000	1.355520	0.013555
168.941000	1.347540	0.013475
169.081000	1.339580	0.013396
169.223000	1.331640	0.013316
169.365000	1.323740	0.013237
169.507000	1.315870	0.013159
169.651000	1.308060	0.013081
169.794000	1.300280	0.013003
169.939000	1.292600	0.012926
170.083000	1.284990	0.012850
170.228000	1.277450	0.012775
170.374000	1.269980	0.012700
170.519000	1.262590	0.012626
170.665000	1.255310	0.012553
170.811000	1.248120	0.012481
170.955000	1.241050	0.012411
171.100000	1.234110	0.012341
171.246000	1.227290	0.012273
171.394000	1.220590	0.012206
171.543000	1.213980	0.012140
171.693000	1.207470	0.012075
171.844000	1.200970	0.012010
171.996000	1.194630	0.011946
172.150000	1.188370	0.011884
172.303000	1.182210	0.011822
172.458000	1.176130	0.011761
172.613000	1.170150	0.011702
172.769000	1.164240	0.011642
172.925000	1.158390	0.011584
173.082000	1.152520	0.011525
173.237000	1.146740	0.011467
173.392000	1.140980	0.011410
173.547000	1.135230	0.011352
173.700000	1.129490	0.011295
173.854000	1.123760	0.011238
174.005000	1.118030	0.011180
174.156000	1.112290	0.011123
174.307000	1.106550	0.011066
174.456000	1.100790	0.011008
174.605000	1.095030	0.010950
174.752000	1.089260	0.010893
174.899000	1.083490	0.010835
175.046000	1.077720	0.010777
175.193000	1.071970	0.010720
175.340000	1.066230	0.010662
175.486000	1.060500	0.010605
175.632000	1.054790	0.010548
175.777000	1.049110	0.010491
175.921000	1.043440	0.010434
176.064000	1.037800	0.010378
176.205000	1.032160	0.010322
176.346000	1.026520	0.010265
176.486000	1.020910	0.010209
176.627000	1.015240	0.010152
176.766000	1.009590	0.010096
176.907000	1.003950	0.010040
177.046000	0.998324	0.009983
177.185000	0.992713	0.009927
177.324000	0.987101	0.009871
177.463000	0.981471	0.009815
177.602000	0.975797	0.009758
177.738000	0.970070	0.009701
177.874000	0.964270	0.009643
178.008000	0.958381	0.009584
178.143000	0.952396	0.009524
178.277000	0.946293	0.009463
178.410000	0.940065	0.009401
178.542000	0.933724	0.009337
178.674000	0.927277	0.009273
178.808000	0.920734	0.009207
178.941000	0.914116	0.009141
179.077000	0.907436	0.009074
179.214000	0.900698	0.009007
179.352000	0.893922	0.008939
179.490000	0.887118	0.008871
179.628000	0.880310	0.008803
179.765000	0.873525	0.008735
179.903000	0.866797	0.008668
180.040000	0.860149	0.008601
180.176000	0.853585	0.008536
180.313000	0.847133	0.008471
180.451000	0.840815	0.008408
180.591000	0.834631	0.008346
180.729000	0.828614	0.008286
180.867000	0.822796	0.008228
181.006000	0.817159	0.008172
181.142000	0.811750	0.008118
181.280000	0.806515	0.008065
181.418000	0.801481	0.008015
181.554000	0.796625	0.007966
181.689000	0.791935	0.007919
181.820000	0.787374	0.007874
181.949000	0.782913	0.007829
182.078000	0.778543	0.007785
182.206000	0.774234	0.007742
182.334000	0.769962	0.007700
182.461000	0.765721	0.007657
182.587000	0.761491	0.007615
182.712000	0.757274	0.007573
182.837000	0.753054	0.007531
182.963000	0.748822	0.007488
183.091000	0.744569	0.007446
183.222000	0.740275	0.007403
183.355000	0.735941	0.007359
183.490000	0.731556	0.007316
183.626000	0.727109	0.007271
183.763000	0.722603	0.007226
183.900000	0.718057	0.007181
184.038000	0.713422	0.007134
184.177000	0.708722	0.007087
184.316000	0.703971	0.007040
184.454000	0.699176	0.006992
184.593000	0.694348	0.006943
184.731000	0.689477	0.006895
184.869000	0.684562	0.006846
185.005000	0.679658	0.006797
185.141000	0.674746	0.006747
185.278000	0.669867	0.006699
185.414000	0.664997	0.006650
185.550000	0.660113	0.006601
185.688000	0.655213	0.006552
185.824000	0.650396	0.006504
185.960000	0.645483	0.006455
186.098000	0.640539	0.006405
186.236000	0.635551	0.006356
186.375000	0.630505	0.006305
186.513000	0.625391	0.006254
186.647000	0.620213	0.006202
186.781000	0.614976	0.006150
186.913000	0.609690	0.006097
187.044000	0.604358	0.006044
187.175000	0.598962	0.005990
187.310000	0.593508	0.005935
187.444000	0.587993	0.005880
187.580000	0.582414	0.005824
187.718000	0.576789	0.005768
187.857000	0.571105	0.005711
187.998000	0.565366	0.005654
188.141000	0.559592	0.005596
188.286000	0.553770	0.005538
188.431000	0.547912	0.005479
188.580000	0.542004	0.005420
188.731000	0.536047	0.005360
188.883000	0.530033	0.005300
189.033000	0.524012	0.005240
189.184000	0.517929	0.005179
189.334000	0.511785	0.005118
189.483000	0.505595	0.005056
189.632000	0.499368	0.004994
189.780000	0.493095	0.004931
189.929000	0.486785	0.004868
190.078000	0.480450	0.004805
190.228000	0.474058	0.004741
190.379000	0.467690	0.004677
190.528000	0.461302	0.004613
190.677000	0.454892	0.004549
190.825000	0.448467	0.004485
190.971000	0.442032	0.004420
191.116000	0.435618	0.004356
191.261000	0.429248	0.004292
191.405000	0.422916	0.004229
191.548000	0.416635	0.004166
191.691000	0.410447	0.004104
191.834000	0.404353	0.004044
191.976000	0.398364	0.003984
192.119000	0.392490	0.003925
192.264000	0.386759	0.003868
192.410000	0.381159	0.003812
192.554000	0.375695	0.003757
192.698000	0.370390	0.003704
192.842000	0.365211	0.003652
192.987000	0.360146	0.003601
193.132000	0.355192	0.003552
193.277000	0.350325	0.003503
193.419000	0.345536	0.003455
193.559000	0.340803	0.003408
193.696000	0.336119	0.003361
193.828000	0.331465	0.003315
193.956000	0.326858	0.003269
194.082000	0.322316	0.003223
194.207000	0.317820	0.003178
194.334000	0.313351	0.003134
194.462000	0.308891	0.003089
194.592000	0.304424	0.003044
194.723000	0.299893	0.002999
194.856000	0.295311	0.002953
194.989000	0.290634	0.002906
195.123000	0.285898	0.002859
195.257000	0.281075	0.002811
195.392000	0.276184	0.002762
195.529000	0.271233	0.002712
195.665000	0.266233	0.002662
195.800000	0.261205	0.002612
195.935000	0.256150	0.002562
196.070000	0.251077	0.002511
196.201000	0.245994	0.002460
196.336000	0.240895	0.002409
196.471000	0.235803	0.002358
196.605000	0.230718	0.002307
196.740000	0.225644	0.002256
196.875000	0.220589	0.002206
197.013000	0.215563	0.002156
197.154000	0.210582	0.002106
197.295000	0.205653	0.002057
197.439000	0.200803	0.002008
197.583000	0.196066	0.001961
197.728000	0.191443	0.001914
197.869000	0.186940	0.001869
198.012000	0.182610	0.001826
198.153000	0.178424	0.001784
198.295000	0.174368	0.001744
198.437000	0.170453	0.001705
198.580000	0.166615	0.001666
198.722000	0.162852	0.001629
198.865000	0.159177	0.001592
199.008000	0.155517	0.001555
199.150000	0.151884	0.001519
199.294000	0.148248	0.001482
199.438000	0.144630	0.001446
199.583000	0.141051	0.001411
199.728000	0.137511	0.001375
199.874000	0.134005	0.001340
200.017000	0.130537	0.001305
200.163000	0.127104	0.001271
200.307000	0.123702	0.001237
200.449000	0.120337	0.001203
200.593000	0.117013	0.001170
200.736000	0.113743	0.001137
200.880000	0.110517	0.001105
201.024000	0.107351	0.001074
201.170000	0.104254	0.001043
201.317000	0.101250	0.001013
201.464000	0.098346	0.000983
201.612000	0.095558	0.000956
201.759000	0.092890	0.000929
201.906000	0.090356	0.000904
202.053000	0.087982	0.000880
202.201000	0.085789	0.000858
202.349000	0.083792	0.000838
202.495000	0.081999	0.000820
202.642000	0.080432	0.000804
202.789000	0.079056	0.000791
202.938000	0.077885	0.000779
203.087000	0.076789	0.000768
203.236000	0.075781	0.000758
203.385000	0.074901	0.000749
203.532000	0.074154	0.000742
203.679000	0.073508	0.000735
203.829000	0.072963	0.000730
203.982000	0.072525	0.000725
204.137000	0.072181	0.000722
204.293000	0.071921	0.000719
204.452000	0.071744	0.000717
204.614000	0.071641	0.000716
204.776000	0.071601	0.000716
204.938000	0.071611	0.000716
205.098000	0.071674	0.000717
205.255000	0.071760	0.000718
205.410000	0.071847	0.000718
205.565000	0.071926	0.000719
205.718000	0.071981	0.000720
205.869000	0.071997	0.000720
206.022000	0.071928	0.000719
206.173000	0.071775	0.000718
206.324000	0.071536	0.000715
206.474000	0.071219	0.000712
206.625000	0.070823	0.000708
206.776000	0.070359	0.000704
206.929000	0.069829	0.000698
207.081000	0.069232	0.000692
207.235000	0.068620	0.000686
207.388000	0.068036	0.000680
207.540000	0.067470	0.000675
207.693000	0.066980	0.000670
207.845000	0.066529	0.000665
207.996000	0.066204	0.000662
208.145000	0.065976	0.000660
208.294000	0.065827	0.000658
208.441000	0.065703	0.000657
208.589000	0.065584	0.000656
208.736000	0.065441	0.000654
208.886000	0.065293	0.000653
209.035000	0.065137	0.000651
209.182000	0.064977	0.000650
209.330000	0.064842	0.000648
209.478000	0.064726	0.000647
209.625000	0.064639	0.000646
209.770000	0.064586	0.000646
209.916000	0.064580	0.000646
210.062000	0.064616	0.000646
210.207000	0.064693	0.000647
210.352000	0.064808	0.000648
210.495000	0.064942	0.000649
210.638000	0.065088	0.000651
210.784000	0.065255	0.000653
210.929000	0.065432	0.000654
211.075000	0.065625	0.000656
211.221000	0.065818	0.000658
211.365000	0.066019	0.000660
211.512000	0.066216	0.000662
211.660000	0.066410	0.000664
211.809000	0.066589	0.000666
211.958000	0.066747	0.000667
212.106000	0.066865	0.000669
212.255000	0.066954	0.000670
212.402000	0.066987	0.000670
212.546000	0.066949	0.000669
212.691000	0.066876	0.000669
212.836000	0.066686	0.000667
212.982000	0.066406	0.000664
213.127000	0.066056	0.000661
213.273000	0.065634	0.000656
213.417000	0.065203	0.000652
213.563000	0.064806	0.000648
213.711000	0.064350	0.000644
213.859000	0.063905	0.000639
214.008000	0.063490	0.000635
214.156000	0.063237	0.000632
214.303000	0.063182	0.000632
214.451000	0.063313	0.000633
214.599000	0.063575	0.000636
214.748000	0.063893	0.000639
214.897000	0.064230	0.000642
215.046000	0.064574	0.000646
215.195000	0.064933	0.000649
215.342000	0.065319	0.000653
215.490000	0.065723	0.000657
215.636000	0.066155	0.000662
215.780000	0.066620	0.000666
215.927000	0.067111	0.000671
216.070000	0.067633	0.000676
216.214000	0.068170	0.000682
216.359000	0.068719	0.000687
216.505000	0.069042	0.000690
216.649000	0.069556	0.000696
216.793000	0.070026	0.000700
216.939000	0.070404	0.000704
217.084000	0.070646	0.000706
217.227000	0.070718	0.000707
217.366000	0.070634	0.000706
217.505000	0.070388	0.000704
217.646000	0.070061	0.000701
217.788000	0.069644	0.000696
217.929000	0.069269	0.000693
218.072000	0.068875	0.000689
218.216000	0.068482	0.000685
218.361000	0.068105	0.000681
218.505000	0.067773	0.000678
218.649000	0.067492	0.000675
218.792000	0.067268	0.000673
218.934000	0.067109	0.000671
219.076000	0.067019	0.000670
219.219000	0.066987	0.000670
219.362000	0.067001	0.000670
219.501000	0.067044	0.000670
219.637000	0.067103	0.000671
219.773000	0.067170	0.000672
219.911000	0.067236	0.000672
220.051000	0.067307	0.000673
220.191000	0.067393	0.000674
220.333000	0.067505	0.000675
220.475000	0.067646	0.000676
220.617000	0.067843	0.000678
220.759000	0.068103	0.000681
220.900000	0.068413	0.000684
221.041000	0.068827	0.000688
221.178000	0.069224	0.000692
221.317000	0.069657	0.000697
221.452000	0.070115	0.000701
221.585000	0.070578	0.000706
221.717000	0.071036	0.000710
221.852000	0.071464	0.000715
221.988000	0.071885	0.000719
222.126000	0.072249	0.000722
222.267000	0.072571	0.000726
222.407000	0.072784	0.000728
222.548000	0.072919	0.000729
222.690000	0.072981	0.000730
222.831000	0.072998	0.000730
222.973000	0.072997	0.000730
223.118000	0.072992	0.000730
223.263000	0.072971	0.000730
223.409000	0.072958	0.000730
223.555000	0.072928	0.000729
223.702000	0.072887	0.000729
223.849000	0.072824	0.000728
223.997000	0.072740	0.000727
224.146000	0.072629	0.000726
224.294000	0.072483	0.000725
224.442000	0.072299	0.000723
224.590000	0.072086	0.000721
224.738000	0.071850	0.000718
224.886000	0.071609	0.000716
225.034000	0.071362	0.000714
225.183000	0.071134	0.000711
225.333000	0.071034	0.000710
225.482000	0.071085	0.000711
225.629000	0.071407	0.000714
225.777000	0.071727	0.000717
225.922000	0.072150	0.000721
226.069000	0.072620	0.000726
226.215000	0.073110	0.000731
226.363000	0.073610	0.000736
226.512000	0.074133	0.000741
226.659000	0.074632	0.000746
226.809000	0.075116	0.000751
226.958000	0.075594	0.000756
227.106000	0.076048	0.000760
227.252000	0.076500	0.000765
227.399000	0.076958	0.000770
227.546000	0.077420	0.000774
227.692000	0.077879	0.000779
227.839000	0.078344	0.000783
227.988000	0.078764	0.000788
228.138000	0.079232	0.000792
228.289000	0.079687	0.000797
228.439000	0.080097	0.000801
228.589000	0.080300	0.000803
228.740000	0.080236	0.000802
228.890000	0.079911	0.000799
229.040000	0.079404	0.000794
229.190000	0.078834	0.000788
229.339000	0.078274	0.000783
229.490000	0.077752	0.000778
229.641000	0.077264	0.000773
229.794000	0.076810	0.000768
229.946000	0.076427	0.000764
230.096000	0.076136	0.000761
230.249000	0.075938	0.000759
230.405000	0.075986	0.000760
230.561000	0.075925	0.000759
230.716000	0.075963	0.000760
230.870000	0.076057	0.000761
231.021000	0.076408	0.000764
231.172000	0.076571	0.000766
231.323000	0.076746	0.000767
231.473000	0.076975	0.000770
231.621000	0.077273	0.000773
231.770000	0.077649	0.000776
231.919000	0.078089	0.000781
232.071000	0.078553	0.000786
232.223000	0.079014	0.000790
232.374000	0.079448	0.000794
232.526000	0.079847	0.000798
232.681000	0.080221	0.000802
232.835000	0.080561	0.000806
232.988000	0.080851	0.000809
233.139000	0.081068	0.000811
233.288000	0.081229	0.000812
233.437000	0.081319	0.000813
233.586000	0.081359	0.000814
233.733000	0.081330	0.000813
233.881000	0.081280	0.000813
234.030000	0.081214	0.000812
234.179000	0.081130	0.000811
234.327000	0.081009	0.000810
234.476000	0.080887	0.000809
234.625000	0.080789	0.000808
234.774000	0.080705	0.000807
234.924000	0.080632	0.000806
235.073000	0.080576	0.000806
235.224000	0.080536	0.000805
235.375000	0.080548	0.000805
235.525000	0.080700	0.000807
235.674000	0.080976	0.000810
235.825000	0.081276	0.000813
235.973000	0.081709	0.000817
236.123000	0.082148	0.000821
236.271000	0.082558	0.000826
236.420000	0.082940	0.000829
236.568000	0.083269	0.000833
236.717000	0.083536	0.000835
236.868000	0.083733	0.000837
237.018000	0.083865	0.000839
237.170000	0.083960	0.000840
237.319000	0.084009	0.000840
237.467000	0.084031	0.000840
237.613000	0.084035	0.000840
237.757000	0.084035	0.000840
237.901000	0.084011	0.000840
238.045000	0.083976	0.000840
238.188000	0.083947	0.000839
238.333000	0.083906	0.000839
238.478000	0.083888	0.000839
238.623000	0.083864	0.000839
238.768000	0.083856	0.000839
238.915000	0.083878	0.000839
239.062000	0.083964	0.000840
239.209000	0.084136	0.000841
239.357000	0.084412	0.000844
239.504000	0.084787	0.000848
239.649000	0.085255	0.000853
239.793000	0.085795	0.000858
239.937000	0.086397	0.000864
240.079000	0.087092	0.000871
240.221000	0.087597	0.000876
240.362000	0.087958	0.000880
240.503000	0.088066	0.000881
240.646000	0.088230	0.000882
240.789000	0.088296	0.000883
240.932000	0.088338	0.000883
241.077000	0.088375	0.000884
241.225000	0.088410	0.000884
241.371000	0.088431	0.000884
241.517000	0.088451	0.000885
241.664000	0.088459	0.000885
241.811000	0.088455	0.000885
241.957000	0.088428	0.000884
242.105000	0.088367	0.000884
242.251000	0.088292	0.000883
242.397000	0.088180	0.000882
242.543000	0.088032	0.000880
242.691000	0.087847	0.000878
242.839000	0.087641	0.000876
242.988000	0.087407	0.000874
243.135000	0.087173	0.000872
243.283000	0.086962	0.000870
243.434000	0.086806	0.000868
243.586000	0.086735	0.000867
243.738000	0.086776	0.000868
243.889000	0.086993	0.000870
244.041000	0.087376	0.000874
244.192000	0.087877	0.000879
244.342000	0.088466	0.000885
244.489000	0.089114	0.000891
244.634000	0.089774	0.000898
244.779000	0.090387	0.000904
244.924000	0.090993	0.000910
245.068000	0.091432	0.000914
245.212000	0.091643	0.000916
245.357000	0.091921	0.000919
245.500000	0.092171	0.000922
245.644000	0.092402	0.000924
245.788000	0.092613	0.000926
245.929000	0.092823	0.000928
246.071000	0.093047	0.000930
246.211000	0.093244	0.000932
246.351000	0.093369	0.000934
246.497000	0.093361	0.000934
246.642000	0.093206	0.000932
246.786000	0.092975	0.000930
246.932000	0.092735	0.000927
247.079000	0.092540	0.000925
247.226000	0.092382	0.000924
247.372000	0.092257	0.000923
247.519000	0.092171	0.000922
247.664000	0.092159	0.000922
247.810000	0.092225	0.000922
247.954000	0.092348	0.000923
248.099000	0.092536	0.000925
248.243000	0.092778	0.000928
248.388000	0.093076	0.000931
248.533000	0.093377	0.000934
248.678000	0.093686	0.000937
248.822000	0.094006	0.000940
248.964000	0.094339	0.000943
249.104000	0.094686	0.000947
249.246000	0.095008	0.000950
249.387000	0.095320	0.000953
249.531000	0.095619	0.000956
249.673000	0.095998	0.000960
249.813000	0.096290	0.000963
249.955000	0.096528	0.000965
250.099000	0.096647	0.000966
250.244000	0.096635	0.000966
250.390000	0.096507	0.000965
250.539000	0.096298	0.000963
250.687000	0.096078	0.000961
250.835000	0.095896	0.000959
250.980000	0.095748	0.000957
251.125000	0.095644	0.000956
251.271000	0.095597	0.000956
251.415000	0.095603	0.000956
251.560000	0.095654	0.000957
251.703000	0.095748	0.000957
251.844000	0.095882	0.000959
251.983000	0.096037	0.000960
252.117000	0.096216	0.000962
252.247000	0.096410	0.000964
252.379000	0.096637	0.000966
252.508000	0.096875	0.000969
252.641000	0.097121	0.000971
252.775000	0.097372	0.000974
252.911000	0.097618	0.000976
253.048000	0.097867	0.000979
253.186000	0.098108	0.000981
253.325000	0.098327	0.000983
253.464000	0.098497	0.000985
253.604000	0.098603	0.000986
253.745000	0.098628	0.000986
253.886000	0.098579	0.000986
254.027000	0.098468	0.000985
254.170000	0.098315	0.000983
254.313000	0.098134	0.000981
254.455000	0.097863	0.000979
254.597000	0.097732	0.000977
254.737000	0.097649	0.000976
254.879000	0.097629	0.000976
255.022000	0.097600	0.000976
255.165000	0.097638	0.000976
255.310000	0.097704	0.000977
255.455000	0.097808	0.000978
255.599000	0.097942	0.000979
255.742000	0.098117	0.000981
255.886000	0.098317	0.000983
256.029000	0.098543	0.000985
256.174000	0.098809	0.000988
256.317000	0.099111	0.000991
256.462000	0.099449	0.000994
256.607000	0.099811	0.000998
256.750000	0.100220	0.001002
256.892000	0.100636	0.001006
257.029000	0.101092	0.001011
257.160000	0.101558	0.001016
257.288000	0.102050	0.001021
257.415000	0.102541	0.001025
257.543000	0.103020	0.001030
257.674000	0.103492	0.001035
257.805000	0.103946	0.001039
257.935000	0.104351	0.001044
258.066000	0.104616	0.001046
258.198000	0.104701	0.001047
258.330000	0.104605	0.001046
258.464000	0.104358	0.001044
258.600000	0.104019	0.001040
258.737000	0.103633	0.001036
258.878000	0.103231	0.001032
259.019000	0.102642	0.001026
259.162000	0.102269	0.001023
259.308000	0.101930	0.001019
259.456000	0.101712	0.001017
259.606000	0.101525	0.001015
259.753000	0.101389	0.001014
259.900000	0.101329	0.001013
260.045000	0.101326	0.001013
260.191000	0.101357	0.001014
260.338000	0.101436	0.001014
260.482000	0.101596	0.001016
260.625000	0.101900	0.001019
260.767000	0.102354	0.001024
260.909000	0.102901	0.001029
261.053000	0.103446	0.001034
261.194000	0.103952	0.001040
261.332000	0.104390	0.001044
261.474000	0.104769	0.001048
261.617000	0.105105	0.001051
261.761000	0.105369	0.001054
261.905000	0.105563	0.001056
262.048000	0.105685	0.001057
262.194000	0.105751	0.001058
262.342000	0.105760	0.001058
262.492000	0.105780	0.001058
262.642000	0.105746	0.001057
262.796000	0.105713	0.001057
262.944000	0.105683	0.001057
263.094000	0.105679	0.001057
263.241000	0.105689	0.001057
263.387000	0.105738	0.001057
263.532000	0.105819	0.001058
263.676000	0.105924	0.001059
263.818000	0.105970	0.001060
263.961000	0.105952	0.001060
264.104000	0.106135	0.001061
264.246000	0.106320	0.001063
264.387000	0.106534	0.001065
264.528000	0.106800	0.001068
264.670000	0.107078	0.001071
264.811000	0.107350	0.001074
264.951000	0.107602	0.001076
265.090000	0.107841	0.001078
265.229000	0.108044	0.001080
265.370000	0.108208	0.001082
265.513000	0.108337	0.001083
265.655000	0.108439	0.001084
265.797000	0.108507	0.001085
265.940000	0.108560	0.001086
266.083000	0.108610	0.001086
266.228000	0.108642	0.001086
266.374000	0.108675	0.001087
266.520000	0.108704	0.001087
266.665000	0.108740	0.001087
266.810000	0.108779	0.001088
266.953000	0.108840	0.001088
267.095000	0.108906	0.001089
267.237000	0.108998	0.001090
267.381000	0.109118	0.001091
267.525000	0.109279	0.001093
267.674000	0.109471	0.001095
267.827000	0.109701	0.001097
267.984000	0.109970	0.001100
268.141000	0.110278	0.001103
268.295000	0.110621	0.001106
268.447000	0.110977	0.001110
268.596000	0.111341	0.001113
268.745000	0.111708	0.001117
268.894000	0.112072	0.001121
269.041000	0.112339	0.001123
269.188000	0.112569	0.001126
269.337000	0.112771	0.001128
269.484000	0.112944	0.001129
269.631000	0.113096	0.001131
269.776000	0.113210	0.001132
269.921000	0.113303	0.001133
270.066000	0.113360	0.001134
270.209000	0.113410	0.001134
270.351000	0.113438	0.001134
270.492000	0.113434	0.001134
270.636000	0.113399	0.001134
270.782000	0.113334	0.001133
270.930000	0.113236	0.001132
271.078000	0.113095	0.001131
271.226000	0.112956	0.001130
271.372000	0.112777	0.001128
271.518000	0.112582	0.001126
271.666000	0.112381	0.001124
271.814000	0.112177	0.001122
271.959000	0.111992	0.001120
272.108000	0.111812	0.001118
272.260000	0.111677	0.001117
272.411000	0.111606	0.001116
272.563000	0.111636	0.001116
272.713000	0.111782	0.001118
272.862000	0.112071	0.001121
273.010000	0.112471	0.001125
273.157000	0.112954	0.001130
273.302000	0.113506	0.001135
273.448000	0.114121	0.001141
273.595000	0.114890	0.001149
273.743000	0.115549	0.001155
273.895000	0.116230	0.001162
274.048000	0.116784	0.001168
274.198000	0.117273	0.001173
274.346000	0.117678	0.001177
274.493000	0.118016	0.001180
274.642000	0.118287	0.001183
274.791000	0.118520	0.001185
274.940000	0.118727	0.001187
275.089000	0.118888	0.001189
275.239000	0.118976	0.001190
275.389000	0.118946	0.001189
275.540000	0.118786	0.001188
275.689000	0.118566	0.001186
275.837000	0.118348	0.001183
275.985000	0.118197	0.001182
276.133000	0.118090	0.001181
276.281000	0.118013	0.001180
276.430000	0.117960	0.001180
276.578000	0.117956	0.001180
276.723000	0.118002	0.001180
276.865000	0.118098	0.001181
277.008000	0.118254	0.001183
277.148000	0.118405	0.001184
277.286000	0.118632	0.001186
277.425000	0.118882	0.001189
277.563000	0.119162	0.001192
277.697000	0.119464	0.001195
277.827000	0.119757	0.001198
277.952000	0.120049	0.001200
278.072000	0.120311	0.001203
278.194000	0.120554	0.001206
278.317000	0.120748	0.001207
278.446000	0.121072	0.001211
278.578000	0.121144	0.001211
278.711000	0.121377	0.001214
278.845000	0.121385	0.001214
278.982000	0.121365	0.001214
279.121000	0.121337	0.001213
279.260000	0.121309	0.001213
279.402000	0.121299	0.001213
279.545000	0.121321	0.001213
279.688000	0.121391	0.001214
279.833000	0.121517	0.001215
279.977000	0.121675	0.001217
280.119000	0.121874	0.001219
280.260000	0.122126	0.001221
280.402000	0.122397	0.001224
280.545000	0.122667	0.001227
280.688000	0.122958	0.001230
280.829000	0.123244	0.001232
280.968000	0.123527	0.001235
281.108000	0.123803	0.001238
281.249000	0.124073	0.001241
281.389000	0.124326	0.001243
281.529000	0.124561	0.001246
281.668000	0.124765	0.001248
281.806000	0.124939	0.001249
281.946000	0.125066	0.001251
282.083000	0.125155	0.001252
282.216000	0.125181	0.001252
282.347000	0.125155	0.001252
282.478000	0.125079	0.001251
282.610000	0.124950	0.001250
282.744000	0.124809	0.001248
282.880000	0.124655	0.001247
283.016000	0.124503	0.001245
283.154000	0.124340	0.001243
283.292000	0.124277	0.001243
283.431000	0.124242	0.001242
283.570000	0.124252	0.001243
283.709000	0.124327	0.001243
283.845000	0.124461	0.001245
283.973000	0.124660	0.001247
284.098000	0.124913	0.001249
284.221000	0.125212	0.001252
284.340000	0.125547	0.001255
284.458000	0.125923	0.001259
284.580000	0.126311	0.001263
284.709000	0.126701	0.001267
284.842000	0.127099	0.001271
284.976000	0.127500	0.001275
285.111000	0.127907	0.001279
285.247000	0.128290	0.001283
285.381000	0.128637	0.001286
285.516000	0.128905	0.001289
285.652000	0.129053	0.001291
285.790000	0.129133	0.001291
285.928000	0.129191	0.001292
286.068000	0.129260	0.001293
286.208000	0.129316	0.001293
286.349000	0.129367	0.001294
286.490000	0.129385	0.001294
286.630000	0.129405	0.001294
286.769000	0.129412	0.001294
286.914000	0.129439	0.001294
287.060000	0.129451	0.001295
287.207000	0.129536	0.001295
287.355000	0.129650	0.001297
287.505000	0.129772	0.001298
287.653000	0.129898	0.001299
287.800000	0.129974	0.001300
287.950000	0.130090	0.001301
288.105000	0.130176	0.001302
288.264000	0.130237	0.001302
288.424000	0.130250	0.001303
288.583000	0.130240	0.001302
288.740000	0.130185	0.001302
288.890000	0.130102	0.001301
289.038000	0.130029	0.001300
289.185000	0.130001	0.001300
289.331000	0.130070	0.001301
289.474000	0.130257	0.001303
289.617000	0.130504	0.001305
289.759000	0.130752	0.001308
289.900000	0.130992	0.001310
290.038000	0.131225	0.001312
290.172000	0.131447	0.001314
290.306000	0.131672	0.001317
290.440000	0.131876	0.001319
290.574000	0.132076	0.001321
290.707000	0.132266	0.001323
290.842000	0.132446	0.001324
290.973000	0.132626	0.001326
291.104000	0.132802	0.001328
291.237000	0.132930	0.001329
291.370000	0.133075	0.001331
291.502000	0.133145	0.001331
291.632000	0.133208	0.001332
291.760000	0.133271	0.001333
291.886000	0.133369	0.001334
292.009000	0.133507	0.001335
292.130000	0.133686	0.001337
292.248000	0.133934	0.001339
292.368000	0.134267	0.001343
292.491000	0.134421	0.001344
292.617000	0.134775	0.001348
292.743000	0.135134	0.001351
292.869000	0.135464	0.001355
292.993000	0.135757	0.001358
293.115000	0.136004	0.001360
293.236000	0.136199	0.001362
293.354000	0.136310	0.001363
293.473000	0.136326	0.001363
293.592000	0.136283	0.001363
293.711000	0.136173	0.001362
293.831000	0.136002	0.001360
293.953000	0.135799	0.001358
294.081000	0.135601	0.001356
294.211000	0.135403	0.001354
294.343000	0.135227	0.001352
294.478000	0.135062	0.001351
294.612000	0.134916	0.001349
294.741000	0.134795	0.001348
294.863000	0.134688	0.001347
294.980000	0.134644	0.001346
295.094000	0.134627	0.001346
295.203000	0.134674	0.001347
295.309000	0.134813	0.001348
295.414000	0.135033	0.001350
295.514000	0.135342	0.001353
295.612000	0.135733	0.001357
295.707000	0.136175	0.001362
295.797000	0.136660	0.001367
295.880000	0.137166	0.001372
295.960000	0.137664	0.001377
296.036000	0.138130	0.001381
296.111000	0.138542	0.001385
296.186000	0.138940	0.001389
296.262000	0.139222	0.001392
296.338000	0.139451	0.001395
296.416000	0.139596	0.001396
296.494000	0.139653	0.001397
296.573000	0.139673	0.001397
296.650000	0.139632	0.001396
296.727000	0.139538	0.001395
296.805000	0.139396	0.001394
296.882000	0.139205	0.001392
296.958000	0.138989	0.001390
297.035000	0.138759	0.001388
297.112000	0.138523	0.001385
297.191000	0.138283	0.001383
297.268000	0.138036	0.001380
297.345000	0.137803	0.001378
297.418000	0.137613	0.001376
297.488000	0.137522	0.001375
297.557000	0.137556	0.001376
297.626000	0.137677	0.001377
297.694000	0.137832	0.001378
297.760000	0.138002	0.001380
297.826000	0.138206	0.001382
297.891000	0.138437	0.001384
297.957000	0.138734	0.001387
298.021000	0.139184	0.001392
298.083000	0.139501	0.001395
298.144000	0.139742	0.001397
298.205000	0.139985	0.001400
298.264000	0.140146	0.001401
298.326000	0.140265	0.001403
298.388000	0.140353	0.001404
298.446000	0.140427	0.001404
298.503000	0.140480	0.001405
298.558000	0.140521	0.001405
298.613000	0.140551	0.001406
298.671000	0.140586	0.001406
298.727000	0.140626	0.001406
298.783000	0.140692	0.001407
298.840000	0.140785	0.001408
298.897000	0.140905	0.001409
298.954000	0.141042	0.001410
299.010000	0.141201	0.001412
299.064000	0.141372	0.001414
299.115000	0.141547	0.001415
299.162000	0.141720	0.001417
299.203000	0.141883	0.001419
299.237000	0.142022	0.001420
299.267000	0.142136	0.001421
299.295000	0.142210	0.001422
299.321000	0.142243	0.001422
299.348000	0.142233	0.001422
299.376000	0.142182	0.001422
299.405000	0.142102	0.001421
299.435000	0.141966	0.001420
299.468000	0.141806	0.001418
299.505000	0.141627	0.001416
299.544000	0.141492	0.001415
299.585000	0.141346	0.001413
299.627000	0.141284	0.001413
299.670000	0.141280	0.001413
299.714000	0.141308	0.001413
299.758000	0.141357	0.001414
299.800000	0.141404	0.001414
299.844000	0.141467	0.001415
299.887000	0.141504	0.001415
299.931000	0.141521	0.001415
299.978000	0.141534	0.001415
300.025000	0.141555	0.001416
300.073000	0.141548	0.001415
300.125000	0.141540	0.001415
300.183000	0.141539	0.001415
300.241000	0.141536	0.001415
300.301000	0.141531	0.001415
300.362000	0.141544	0.001415
300.418000	0.141560	0.001416
300.472000	0.141620	0.001416
300.523000	0.141709	0.001417
300.571000	0.141831	0.001418
300.617000	0.141993	0.001420
300.662000	0.142171	0.001422
300.708000	0.142350	0.001424
300.753000	0.142519	0.001425
300.797000	0.142686	0.001427
300.841000	0.142842	0.001428
300.883000	0.142993	0.001430
300.926000	0.143156	0.001432
300.968000	0.143296	0.001433
301.011000	0.143459	0.001435
301.055000	0.143612	0.001436
301.100000	0.143718	0.001437
301.144000	0.143795	0.001438
301.188000	0.143831	0.001438
301.229000	0.143854	0.001439
301.269000	0.143840	0.001438
301.304000	0.143799	0.001438
301.338000	0.143726	0.001437
301.370000	0.143659	0.001437
301.402000	0.143606	0.001436
301.433000	0.143550	0.001436
301.464000	0.143410	0.001434
301.497000	0.143395	0.001434
301.530000	0.143376	0.001434
301.561000	0.143372	0.001434
301.589000	0.143383	0.001434
301.618000	0.143377	0.001434
301.646000	0.143394	0.001434
301.677000	0.143429	0.001434
301.713000	0.143472	0.001435
301.752000	0.143529	0.001435
301.791000	0.143604	0.001436
301.828000	0.143688	0.001437
301.865000	0.143780	0.001438
301.901000	0.143876	0.001439
301.935000	0.143980	0.001440
301.968000	0.144094	0.001441
302.002000	0.144171	0.001442
302.036000	0.144281	0.001443
302.068000	0.144390	0.001444
302.096000	0.144508	0.001445
302.122000	0.144639	0.001446
302.153000	0.144772	0.001448
302.190000	0.144879	0.001449
302.229000	0.144968	0.001450
302.268000	0.145014	0.001450
302.305000	0.144863	0.001449
302.339000	0.144833	0.001448
302.373000	0.144836	0.001448
302.409000	0.144821	0.001448
302.444000	0.144797	0.001448
302.480000	0.144738	0.001447
302.514000	0.144675	0.001447
302.547000	0.144601	0.001446
302.578000	0.144523	0.001445
302.608000	0.144453	0.001445
302.636000	0.144382	0.001444
302.667000	0.144330	0.001443
302.699000	0.144290	0.001443
302.732000	0.144245	0.001442
302.765000	0.144214	0.001442
302.799000	0.144192	0.001442
302.833000	0.144180	0.001442
302.863000	0.144169	0.001442
302.894000	0.144157	0.001442
302.921000	0.144144	0.001441
302.944000	0.144145	0.001441
302.967000	0.144151	0.001442
302.989000	0.144176	0.001442
303.015000	0.144215	0.001442
303.040000	0.144276	0.001443
303.069000	0.144351	0.001444
303.098000	0.144479	0.001445
303.127000	0.144639	0.001446
303.156000	0.144850	0.001449
303.182000	0.145095	0.001451
303.205000	0.145368	0.001454
303.228000	0.145652	0.001457
303.249000	0.145950	0.001460
303.267000	0.146237	0.001462
303.287000	0.146516	0.001465
303.306000	0.146736	0.001467
303.324000	0.146931	0.001469
303.342000	0.147080	0.001471
303.359000	0.147194	0.001472
303.372000	0.147272	0.001473
303.382000	0.147324	0.001473
303.392000	0.147359	0.001474
303.396000	0.147368	0.001474
303.397000	0.147363	0.001474
303.399000	0.147361	0.001474
303.406000	0.147341	0.001473
303.415000	0.147308	0.001473
303.426000	0.147283	0.001473
303.439000	0.147244	0.001472
303.453000	0.147205	0.001472
303.468000	0.147223	0.001472
303.479000	0.147181	0.001472
303.489000	0.147142	0.001471
303.500000	0.147129	0.001471
303.515000	0.147066	0.001471
303.530000	0.146987	0.001470
303.545000	0.146900	0.001469
303.560000	0.146826	0.001468
303.575000	0.146766	0.001468
303.591000	0.146739	0.001467
303.606000	0.146722	0.001467
303.623000	0.146727	0.001467
303.641000	0.146745	0.001467
303.661000	0.146758	0.001468
303.681000	0.146790	0.001468
303.701000	0.146818	0.001468
303.719000	0.146821	0.001468
303.738000	0.146806	0.001468
303.759000	0.146741	0.001467
303.785000	0.146664	0.001467
303.816000	0.146573	0.001466
303.846000	0.146463	0.001465
303.877000	0.146333	0.001463
303.909000	0.146193	0.001462
303.942000	0.145916	0.001459
303.976000	0.145839	0.001458
304.009000	0.145684	0.001457
304.041000	0.145552	0.001456
304.070000	0.145443	0.001454
304.097000	0.145368	0.001454
304.120000	0.145320	0.001453
304.141000	0.145288	0.001453
304.161000	0.145273	0.001453
304.181000	0.145291	0.001453
304.202000	0.145334	0.001453
304.222000	0.145395	0.001454
304.240000	0.145489	0.001455
304.251000	0.145602	0.001456
304.258000	0.145748	0.001457
304.263000	0.145931	0.001459
304.267000	0.146144	0.001461
304.273000	0.146424	0.001464
304.281000	0.146706	0.001467
304.289000	0.147024	0.001470
304.300000	0.147367	0.001474
304.315000	0.147721	0.001477
304.331000	0.148078	0.001481
304.346000	0.148452	0.001485
304.361000	0.148800	0.001488
304.375000	0.149304	0.001493
304.386000	0.149558	0.001496
304.396000	0.149777	0.001498
304.405000	0.149963	0.001500
304.413000	0.150109	0.001501
304.425000	0.150224	0.001502
304.438000	0.150322	0.001503
304.451000	0.150382	0.001504
304.465000	0.150422	0.001504
304.480000	0.150451	0.001505
304.491000	0.150450	0.001505
304.500000	0.150452	0.001505
304.503000	0.150414	0.001504
304.506000	0.150337	0.001503
304.509000	0.150212	0.001502
304.514000	0.150014	0.001500
304.521000	0.149752	0.001498
304.529000	0.149459	0.001495
304.544000	0.149170	0.001492
304.564000	0.148900	0.001489
304.585000	0.148660	0.001487
304.606000	0.148439	0.001484
304.628000	0.148263	0.001483
304.649000	0.148143	0.001481
304.667000	0.148112	0.001481
304.682000	0.148172	0.001482
304.699000	0.148364	0.001484
304.717000	0.148627	0.001486
304.736000	0.148926	0.001489
304.755000	0.149253	0.001493
304.772000	0.149574	0.001496
304.787000	0.149849	0.001498
304.802000	0.150070	0.001501
304.816000	0.150216	0.001502
304.829000	0.150283	0.001503
304.841000	0.150257	0.001503
304.852000	0.150174	0.001502
304.862000	0.150006	0.001500
304.872000	0.149771	0.001498
304.882000	0.149488	0.001495
304.893000	0.149158	0.001492
304.905000	0.148812	0.001488
304.920000	0.148473	0.001485
304.934000	0.148158	0.001482
304.948000	0.147863	0.001479
304.963000	0.147594	0.001476
304.975000	0.147367	0.001474
304.986000	0.147186	0.001472
304.995000	0.147048	0.001470
305.003000	0.146844	0.001468
305.011000	0.146882	0.001469
305.019000	0.146966	0.001470
305.025000	0.147164	0.001472
305.029000	0.147427	0.001474
305.032000	0.147742	0.001477
305.034000	0.148120	0.001481
305.038000	0.148531	0.001485
305.041000	0.148955	0.001490
305.041000	0.149386	0.001494
305.041000	0.149813	0.001498
305.043000	0.150223	0.001502
305.045000	0.150615	0.001506
305.050000	0.150961	0.001510
305.059000	0.151248	0.001512
305.073000	0.151470	0.001515
305.086000	0.151581	0.001516
305.097000	0.151604	0.001516
305.105000	0.151563	0.001516
305.108000	0.151456	0.001515
305.108000	0.151302	0.001513
305.110000	0.151118	0.001511
305.110000	0.150930	0.001509
305.109000	0.150749	0.001507
305.107000	0.150584	0.001506
305.106000	0.150340	0.001503
305.105000	0.150364	0.001504
305.108000	0.150247	0.001502
305.113000	0.150197	0.001502
305.120000	0.150200	0.001502
305.129000	0.150213	0.001502
305.138000	0.150253	0.001503
305.149000	0.150314	0.001503
305.161000	0.150379	0.001504
305.174000	0.150460	0.001505
305.189000	0.150537	0.001505
305.207000	0.150625	0.001506
305.230000	0.150714	0.001507
305.258000	0.150795	0.001508
305.287000	0.150875	0.001509
305.311000	0.150949	0.001509
305.335000	0.151012	0.001510
305.359000	0.151085	0.001511
305.381000	0.151155	0.001512
305.401000	0.151215	0.001512
305.419000	0.151254	0.001513
305.436000	0.151261	0.001513
305.450000	0.151249	0.001512
305.462000	0.151210	0.001512
305.475000	0.151126	0.001511
305.490000	0.150969	0.001510
305.508000	0.150658	0.001507
305.527000	0.150558	0.001506
305.546000	0.150448	0.001504
305.566000	0.150343	0.001503
305.586000	0.150221	0.001502
305.606000	0.150071	0.001501
305.623000	0.149901	0.001499
305.639000	0.149724	0.001497
305.652000	0.149529	0.001495
305.664000	0.149317	0.001493
305.675000	0.149098	0.001491
305.685000	0.148876	0.001489
305.692000	0.148665	0.001487
305.698000	0.148497	0.001485
305.705000	0.148382	0.001484
305.713000	0.148341	0.001483
305.722000	0.148390	0.001484
305.730000	0.148488	0.001485
305.739000	0.148583	0.001486
305.748000	0.148730	0.001487
305.756000	0.148926	0.001489
305.766000	0.149182	0.001492
305.777000	0.149481	0.001495
305.787000	0.149814	0.001498
305.795000	0.150138	0.001501
305.801000	0.150467	0.001505
305.807000	0.150738	0.001507
305.816000	0.150942	0.001509
305.826000	0.151098	0.001511
305.838000	0.151154	0.001512
305.851000	0.151161	0.001512
305.861000	0.151143	0.001511
305.871000	0.151089	0.001511
305.884000	0.151005	0.001510
305.895000	0.150901	0.001509
305.906000	0.150807	0.001508
305.918000	0.150712	0.001507
305.931000	0.150623	0.001506
305.944000	0.150558	0.001506
305.958000	0.150512	0.001505
305.974000	0.150490	0.001505
305.990000	0.150473	0.001505
306.010000	0.150471	0.001505
306.031000	0.150471	0.001505
306.045000	0.150464	0.001505
306.053000	0.150466	0.001505
306.059000	0.150479	0.001505
306.065000	0.150511	0.001505
306.072000	0.150413	0.001504
306.076000	0.150601	0.001506
306.079000	0.150627	0.001506
306.075000	0.150660	0.001507
306.065000	0.150715	0.001507
306.052000	0.150780	0.001508
306.041000	0.150823	0.001508
306.030000	0.150863	0.001509
306.016000	0.150907	0.001509
306.002000	0.150957	0.001510
305.989000	0.151012	0.001510
305.978000	0.151050	0.001511
305.967000	0.151080	0.001511
305.955000	0.151089	0.001511
305.944000	0.151060	0.001511
305.937000	0.150995	0.001510
305.935000	0.150910	0.001509
305.936000	0.150839	0.001508
305.939000	0.150777	0.001508
305.946000	0.150719	0.001507
305.955000	0.150682	0.001507
305.965000	0.150658	0.001507
305.976000	0.150652	0.001507
305.987000	0.150663	0.001507
305.999000	0.150680	0.001507
306.011000	0.150814	0.001508
306.021000	0.150917	0.001509
306.031000	0.150924	0.001509
306.040000	0.150971	0.001510
306.050000	0.151035	0.001510
306.057000	0.151112	0.001511
306.057000	0.151193	0.001512
306.053000	0.151261	0.001513
306.047000	0.151313	0.001513
306.042000	0.151358	0.001514
306.038000	0.151394	0.001514
306.029000	0.151438	0.001514
306.016000	0.151477	0.001515
305.997000	0.151523	0.001515
305.977000	0.151572	0.001516
305.958000	0.151622	0.001516
305.941000	0.151672	0.001517
305.928000	0.151735	0.001517
305.915000	0.151794	0.001518
305.903000	0.151831	0.001518
305.892000	0.151852	0.001519
305.883000	0.151842	0.001518
305.874000	0.151801	0.001518
305.867000	0.151724	0.001517
305.861000	0.151621	0.001516
305.857000	0.151579	0.001516
305.855000	0.151516	0.001515
305.856000	0.151388	0.001514
305.857000	0.151257	0.001513
305.857000	0.151113	0.001511
305.855000	0.150966	0.001510
305.851000	0.150843	0.001508
305.849000	0.150732	0.001507
305.846000	0.150647	0.001506
305.842000	0.150579	0.001506
305.839000	0.150528	0.001505
305.840000	0.150507	0.001505
305.841000	0.150510	0.001505
305.840000	0.150528	0.001505
305.836000	0.150574	0.001506
305.831000	0.150643	0.001506
305.827000	0.150736	0.001507
305.824000	0.150839	0.001508
305.825000	0.150954	0.001510
305.825000	0.151126	0.001511
305.828000	0.151371	0.001514
305.839000	0.151626	0.001516
305.854000	0.151887	0.001519
305.871000	0.152154	0.001522
305.890000	0.152403	0.001524
305.908000	0.152621	0.001526
305.928000	0.152796	0.001528
305.950000	0.152871	0.001529
305.976000	0.152901	0.001529
306.005000	0.152897	0.001529
306.036000	0.152864	0.001529
306.065000	0.152810	0.001528
306.093000	0.152743	0.001527
306.121000	0.152659	0.001527
306.146000	0.152571	0.001526
306.169000	0.152467	0.001525
306.191000	0.152354	0.001524
306.211000	0.152226	0.001522
306.231000	0.152091	0.001521
306.248000	0.151966	0.001520
306.262000	0.151848	0.001518
306.273000	0.151765	0.001518
306.283000	0.151701	0.001517
306.292000	0.151662	0.001517
