Temperature	Strain_p	Strain
307.380000	0.252202	0.002522
307.381000	0.252202	0.002522
307.382000	0.252060	0.002521
307.384000	0.251815	0.002518
307.385000	0.251481	0.002515
307.384000	0.251092	0.002511
307.383000	0.250644	0.002506
307.380000	0.250140	0.002501
307.373000	0.249598	0.002496
307.365000	0.249048	0.002490
307.358000	0.248580	0.002486
307.351000	0.248355	0.002484
307.342000	0.248213	0.002482
307.334000	0.248161	0.002482
307.325000	0.248146	0.002481
307.316000	0.248129	0.002481
307.308000	0.248192	0.002482
307.298000	0.248345	0.002483
307.285000	0.248598	0.002486
307.268000	0.248946	0.002489
307.250000	0.249354	0.002494
307.231000	0.249781	0.002498
307.210000	0.250203	0.002502
307.192000	0.250557	0.002506
307.173000	0.250841	0.002508
307.154000	0.251042	0.002510
307.134000	0.251178	0.002512
307.114000	0.251260	0.002513
307.089000	0.251307	0.002513
307.062000	0.251343	0.002513
307.034000	0.251318	0.002513
307.003000	0.251249	0.002512
306.969000	0.251115	0.002511
306.932000	0.250907	0.002509
306.891000	0.250634	0.002506
306.848000	0.250335	0.002503
306.802000	0.250036	0.002500
306.752000	0.249711	0.002497
306.701000	0.249421	0.002494
306.651000	0.249185	0.002492
306.600000	0.249021	0.002490
306.547000	0.248923	0.002489
306.494000	0.248870	0.002489
306.442000	0.248807	0.002488
306.391000	0.248744	0.002487
306.340000	0.248649	0.002486
306.289000	0.248527	0.002485
306.239000	0.248416	0.002484
306.190000	0.248294	0.002483
306.145000	0.248279	0.002483
306.098000	0.248431	0.002484
306.051000	0.248552	0.002486
306.004000	0.248658	0.002487
305.955000	0.248545	0.002485
305.904000	0.248261	0.002483
305.851000	0.247921	0.002479
305.798000	0.247496	0.002475
305.743000	0.247010	0.002470
305.689000	0.246497	0.002465
305.636000	0.245946	0.002459
305.581000	0.245410	0.002454
305.522000	0.244887	0.002449
305.460000	0.244374	0.002444
305.398000	0.243870	0.002439
305.333000	0.243369	0.002434
305.269000	0.242869	0.002429
305.203000	0.242440	0.002424
305.135000	0.242046	0.002420
305.067000	0.242009	0.002420
304.999000	0.242143	0.002421
304.931000	0.242484	0.002425
304.863000	0.242932	0.002429
304.794000	0.243440	0.002434
304.726000	0.244023	0.002440
304.653000	0.244598	0.002446
304.579000	0.245148	0.002451
304.503000	0.245666	0.002457
304.426000	0.246131	0.002461
304.348000	0.246541	0.002465
304.271000	0.246881	0.002469
304.194000	0.247137	0.002471
304.114000	0.247261	0.002473
304.032000	0.247242	0.002472
303.947000	0.247054	0.002471
303.861000	0.246694	0.002467
303.775000	0.246213	0.002462
303.686000	0.245656	0.002457
303.596000	0.245078	0.002451
303.506000	0.244486	0.002445
303.413000	0.243881	0.002439
303.319000	0.243304	0.002433
303.225000	0.242775	0.002428
303.131000	0.242298	0.002423
303.038000	0.241944	0.002419
302.948000	0.241716	0.002417
302.856000	0.241601	0.002416
302.766000	0.241553	0.002416
302.674000	0.241573	0.002416
302.583000	0.241651	0.002417
302.491000	0.241814	0.002418
302.398000	0.242065	0.002421
302.304000	0.242389	0.002424
302.211000	0.242770	0.002428
302.118000	0.243158	0.002432
302.028000	0.243554	0.002436
301.938000	0.243936	0.002439
301.848000	0.244245	0.002442
301.761000	0.244608	0.002446
301.676000	0.244963	0.002450
301.593000	0.245263	0.002453
301.511000	0.245427	0.002454
301.431000	0.245299	0.002453
301.353000	0.245028	0.002450
301.274000	0.244599	0.002446
301.194000	0.244067	0.002441
301.114000	0.243514	0.002435
301.032000	0.242913	0.002429
300.947000	0.242310	0.002423
300.853000	0.241712	0.002417
300.755000	0.241116	0.002411
300.653000	0.240536	0.002405
300.551000	0.239954	0.002400
300.450000	0.239408	0.002394
300.348000	0.238957	0.002390
300.244000	0.238688	0.002387
300.139000	0.238737	0.002387
300.028000	0.238902	0.002389
299.914000	0.239276	0.002393
299.793000	0.239734	0.002397
299.667000	0.240227	0.002402
299.532000	0.240748	0.002407
299.395000	0.241263	0.002413
299.259000	0.241740	0.002417
299.128000	0.242201	0.002422
298.999000	0.242622	0.002426
298.875000	0.242958	0.002430
298.755000	0.243201	0.002432
298.637000	0.243322	0.002433
298.518000	0.243296	0.002433
298.401000	0.243108	0.002431
298.283000	0.242745	0.002427
298.166000	0.242247	0.002422
298.048000	0.241684	0.002417
297.930000	0.241111	0.002411
297.811000	0.240406	0.002404
297.690000	0.239863	0.002399
297.566000	0.239289	0.002393
297.440000	0.238733	0.002387
297.313000	0.238223	0.002382
297.188000	0.237826	0.002378
297.064000	0.237552	0.002376
296.943000	0.237414	0.002374
296.822000	0.237377	0.002374
296.704000	0.237418	0.002374
296.584000	0.237439	0.002374
296.462000	0.237535	0.002375
296.337000	0.237695	0.002377
296.206000	0.237922	0.002379
296.075000	0.238202	0.002382
295.939000	0.238537	0.002385
295.801000	0.238884	0.002389
295.668000	0.239225	0.002392
295.537000	0.239563	0.002396
295.408000	0.239695	0.002397
295.283000	0.240024	0.002400
295.163000	0.240315	0.002403
295.042000	0.240561	0.002406
294.923000	0.240760	0.002408
294.804000	0.240634	0.002406
294.685000	0.240359	0.002404
294.567000	0.239925	0.002399
294.448000	0.239425	0.002394
294.330000	0.238862	0.002389
294.212000	0.238248	0.002382
294.094000	0.237638	0.002376
293.980000	0.237023	0.002370
293.867000	0.236413	0.002364
293.755000	0.235828	0.002358
293.640000	0.235277	0.002353
293.523000	0.234786	0.002348
293.404000	0.234365	0.002344
293.283000	0.234137	0.002341
293.161000	0.234064	0.002341
293.036000	0.234320	0.002343
292.912000	0.234745	0.002347
292.787000	0.235236	0.002352
292.661000	0.235749	0.002357
292.534000	0.236256	0.002363
292.410000	0.236811	0.002368
292.284000	0.237324	0.002373
292.157000	0.237783	0.002378
292.034000	0.238162	0.002382
291.911000	0.238412	0.002384
291.794000	0.238469	0.002385
291.678000	0.238321	0.002383
291.560000	0.237982	0.002380
291.439000	0.237496	0.002375
291.315000	0.236953	0.002370
291.190000	0.236417	0.002364
291.062000	0.235876	0.002359
290.933000	0.235340	0.002353
290.809000	0.234826	0.002348
290.687000	0.234330	0.002343
290.569000	0.233840	0.002338
290.457000	0.233378	0.002334
290.353000	0.233029	0.002330
290.252000	0.232923	0.002329
290.152000	0.232879	0.002329
290.049000	0.232914	0.002329
289.943000	0.232998	0.002330
289.831000	0.233111	0.002331
289.711000	0.233275	0.002333
289.589000	0.233487	0.002335
289.465000	0.233763	0.002338
289.344000	0.234111	0.002341
289.222000	0.234499	0.002345
289.104000	0.234864	0.002349
288.984000	0.235165	0.002352
288.865000	0.235394	0.002354
288.745000	0.235539	0.002355
288.625000	0.235587	0.002356
288.509000	0.235624	0.002356
288.393000	0.235560	0.002356
288.276000	0.235481	0.002355
288.159000	0.235313	0.002353
288.040000	0.234947	0.002349
287.919000	0.234595	0.002346
287.795000	0.234143	0.002341
287.666000	0.233672	0.002337
287.535000	0.233187	0.002332
287.405000	0.232687	0.002327
287.278000	0.232192	0.002322
287.160000	0.231697	0.002317
287.049000	0.231185	0.002312
286.946000	0.230706	0.002307
286.845000	0.230263	0.002303
286.741000	0.229900	0.002299
286.635000	0.229659	0.002297
286.523000	0.229607	0.002296
286.406000	0.229736	0.002297
286.281000	0.230046	0.002300
286.154000	0.230481	0.002305
286.026000	0.230952	0.002310
285.897000	0.231449	0.002314
285.769000	0.232077	0.002321
285.639000	0.232540	0.002325
285.510000	0.233034	0.002330
285.379000	0.233482	0.002335
285.248000	0.233830	0.002338
285.118000	0.234024	0.002340
284.987000	0.233992	0.002340
284.854000	0.233736	0.002337
284.721000	0.233298	0.002333
284.592000	0.232751	0.002328
284.464000	0.232229	0.002322
284.338000	0.231688	0.002317
284.214000	0.231163	0.002312
284.090000	0.230642	0.002306
283.967000	0.230125	0.002301
283.844000	0.229551	0.002296
283.721000	0.229040	0.002290
283.599000	0.228604	0.002286
283.479000	0.228304	0.002283
283.358000	0.228353	0.002284
283.238000	0.228338	0.002283
283.121000	0.228403	0.002284
283.002000	0.228511	0.002285
282.887000	0.228661	0.002287
282.772000	0.228843	0.002288
282.655000	0.229075	0.002291
282.540000	0.229347	0.002293
282.427000	0.229660	0.002297
282.311000	0.229985	0.002300
282.193000	0.230297	0.002303
282.075000	0.230526	0.002305
281.957000	0.230679	0.002307
281.840000	0.230735	0.002307
281.722000	0.230706	0.002307
281.604000	0.230525	0.002305
281.487000	0.230425	0.002304
281.371000	0.230351	0.002304
281.254000	0.230215	0.002302
281.134000	0.230050	0.002301
281.014000	0.229669	0.002297
280.892000	0.229228	0.002292
280.773000	0.228744	0.002287
280.658000	0.228234	0.002282
280.542000	0.227709	0.002277
280.426000	0.227129	0.002271
280.306000	0.226573	0.002266
280.185000	0.226061	0.002261
280.061000	0.225608	0.002256
279.935000	0.225255	0.002253
279.810000	0.225034	0.002250
279.688000	0.224986	0.002250
279.562000	0.225102	0.002251
279.436000	0.225395	0.002254
279.309000	0.225801	0.002258
279.185000	0.226224	0.002262
279.062000	0.226666	0.002267
278.939000	0.227115	0.002271
278.817000	0.227575	0.002276
278.696000	0.227982	0.002280
278.579000	0.228371	0.002284
278.461000	0.228692	0.002287
278.342000	0.228859	0.002289
278.224000	0.228782	0.002288
278.103000	0.228533	0.002285
277.979000	0.228111	0.002281
277.852000	0.227577	0.002276
277.722000	0.226974	0.002270
277.592000	0.226351	0.002264
277.461000	0.225718	0.002257
277.332000	0.225104	0.002251
277.206000	0.224502	0.002245
277.082000	0.224083	0.002241
276.959000	0.223505	0.002235
276.835000	0.223028	0.002230
276.707000	0.222714	0.002227
276.580000	0.222650	0.002227
276.452000	0.222843	0.002228
276.323000	0.223130	0.002231
276.191000	0.223556	0.002236
276.056000	0.223985	0.002240
275.916000	0.224401	0.002244
275.778000	0.224778	0.002248
275.641000	0.225097	0.002251
275.501000	0.225371	0.002254
275.361000	0.225579	0.002256
275.220000	0.225714	0.002257
275.081000	0.225772	0.002258
274.943000	0.225746	0.002257
274.805000	0.225641	0.002256
274.666000	0.225462	0.002255
274.530000	0.225311	0.002253
274.393000	0.225112	0.002251
274.255000	0.224883	0.002249
274.113000	0.224657	0.002247
273.971000	0.224360	0.002244
273.828000	0.224001	0.002240
273.682000	0.223581	0.002236
273.534000	0.223108	0.002231
273.386000	0.222627	0.002226
273.240000	0.222118	0.002221
273.096000	0.221603	0.002216
272.953000	0.221081	0.002211
272.811000	0.220602	0.002206
272.671000	0.220185	0.002202
272.528000	0.219879	0.002199
272.379000	0.219698	0.002197
272.227000	0.219667	0.002197
272.073000	0.219793	0.002198
271.918000	0.220053	0.002201
271.765000	0.220314	0.002203
271.613000	0.220718	0.002207
271.460000	0.221147	0.002211
271.307000	0.221570	0.002216
271.157000	0.221993	0.002220
271.008000	0.222416	0.002224
270.860000	0.222871	0.002229
270.714000	0.223233	0.002232
270.570000	0.223464	0.002235
270.429000	0.223487	0.002235
270.289000	0.223283	0.002233
270.153000	0.222846	0.002228
270.019000	0.222291	0.002223
269.888000	0.221668	0.002217
269.759000	0.221024	0.002210
269.630000	0.220386	0.002204
269.497000	0.219753	0.002198
269.366000	0.219137	0.002191
269.235000	0.218518	0.002185
269.100000	0.217957	0.002180
268.960000	0.217445	0.002174
268.817000	0.217105	0.002171
268.677000	0.216998	0.002170
268.537000	0.217169	0.002172
268.397000	0.217466	0.002175
268.256000	0.217951	0.002180
268.119000	0.218358	0.002184
267.986000	0.218772	0.002188
267.854000	0.219154	0.002192
267.725000	0.219496	0.002195
267.599000	0.219813	0.002198
267.473000	0.220058	0.002201
267.348000	0.220248	0.002202
267.221000	0.220369	0.002204
267.089000	0.220410	0.002204
266.956000	0.220363	0.002204
266.819000	0.220247	0.002202
266.677000	0.220027	0.002200
266.531000	0.219774	0.002198
266.386000	0.219490	0.002195
266.239000	0.219193	0.002192
266.091000	0.218857	0.002189
265.944000	0.218493	0.002185
265.797000	0.218094	0.002181
265.651000	0.217654	0.002177
265.505000	0.217206	0.002172
265.358000	0.216747	0.002167
265.211000	0.216275	0.002163
265.059000	0.215779	0.002158
264.911000	0.215323	0.002153
264.764000	0.214875	0.002149
264.615000	0.214456	0.002145
264.468000	0.214075	0.002141
264.323000	0.213777	0.002138
264.180000	0.213596	0.002136
264.041000	0.213567	0.002136
263.903000	0.213724	0.002137
263.766000	0.214032	0.002140
263.628000	0.214435	0.002144
263.494000	0.214897	0.002149
263.362000	0.215367	0.002154
263.228000	0.215849	0.002158
263.094000	0.216162	0.002162
262.961000	0.216672	0.002167
262.829000	0.217124	0.002171
262.695000	0.217447	0.002174
262.561000	0.217546	0.002175
262.424000	0.217375	0.002174
262.287000	0.217032	0.002170
262.150000	0.216529	0.002165
262.019000	0.215890	0.002159
261.894000	0.215186	0.002152
261.771000	0.214484	0.002145
261.652000	0.213819	0.002138
261.533000	0.213181	0.002132
261.412000	0.212735	0.002127
261.289000	0.212230	0.002122
261.165000	0.211829	0.002118
261.040000	0.211542	0.002115
260.910000	0.211407	0.002114
260.781000	0.211458	0.002115
260.654000	0.211618	0.002116
260.525000	0.211938	0.002119
260.397000	0.212323	0.002123
260.272000	0.212692	0.002127
260.145000	0.213048	0.002130
260.012000	0.213380	0.002134
259.877000	0.213699	0.002137
259.741000	0.213969	0.002140
259.604000	0.214196	0.002142
259.467000	0.214362	0.002144
259.334000	0.214463	0.002145
259.203000	0.214487	0.002145
259.075000	0.214380	0.002144
258.948000	0.214016	0.002140
258.825000	0.213668	0.002137
258.703000	0.213250	0.002133
258.580000	0.212805	0.002128
258.455000	0.212356	0.002124
258.328000	0.211925	0.002119
258.206000	0.211578	0.002116
258.082000	0.211140	0.002111
257.958000	0.210683	0.002107
257.831000	0.210225	0.002102
257.703000	0.209771	0.002098
257.572000	0.209320	0.002093
257.442000	0.208880	0.002089
257.315000	0.208474	0.002085
257.190000	0.208112	0.002081
257.071000	0.207848	0.002078
256.954000	0.207708	0.002077
256.839000	0.207716	0.002077
256.729000	0.207874	0.002079
256.621000	0.208127	0.002081
256.512000	0.208544	0.002085
256.404000	0.208959	0.002090
256.293000	0.209407	0.002094
256.183000	0.209871	0.002099
256.071000	0.210363	0.002104
255.960000	0.210808	0.002108
255.851000	0.211225	0.002112
255.747000	0.211517	0.002115
255.642000	0.211612	0.002116
255.540000	0.211447	0.002114
255.435000	0.211143	0.002111
255.329000	0.210712	0.002107
255.224000	0.210180	0.002102
255.113000	0.209568	0.002096
255.000000	0.208935	0.002089
254.881000	0.208310	0.002083
254.760000	0.207699	0.002077
254.636000	0.207120	0.002071
254.510000	0.206577	0.002066
254.385000	0.206117	0.002061
254.259000	0.205756	0.002058
254.130000	0.205551	0.002056
254.002000	0.205550	0.002056
253.877000	0.205762	0.002058
253.751000	0.206107	0.002061
253.628000	0.206498	0.002065
253.504000	0.206879	0.002069
253.382000	0.207248	0.002072
253.261000	0.207590	0.002076
253.144000	0.207878	0.002079
253.028000	0.208130	0.002081
252.911000	0.208335	0.002083
252.797000	0.208501	0.002085
252.684000	0.208619	0.002086
252.568000	0.208679	0.002087
252.450000	0.208537	0.002085
252.330000	0.208490	0.002085
252.208000	0.208363	0.002084
252.085000	0.208206	0.002082
251.966000	0.208025	0.002080
251.850000	0.207837	0.002078
251.730000	0.207610	0.002076
251.609000	0.207310	0.002073
251.490000	0.206929	0.002069
251.369000	0.206478	0.002065
251.243000	0.205992	0.002060
251.116000	0.205496	0.002055
250.992000	0.204998	0.002050
250.867000	0.204520	0.002045
250.739000	0.204060	0.002041
250.610000	0.203634	0.002036
250.478000	0.203272	0.002033
250.343000	0.203026	0.002030
250.207000	0.202894	0.002029
250.067000	0.202899	0.002029
249.929000	0.203039	0.002030
249.793000	0.203297	0.002033
249.658000	0.203634	0.002036
249.519000	0.204008	0.002040
249.384000	0.204374	0.002044
249.248000	0.204780	0.002048
249.110000	0.205048	0.002050
248.970000	0.205435	0.002054
248.833000	0.205757	0.002058
248.698000	0.205971	0.002060
248.561000	0.206017	0.002060
248.422000	0.205871	0.002059
248.277000	0.205505	0.002055
248.125000	0.204986	0.002050
247.972000	0.204402	0.002044
247.820000	0.203787	0.002038
247.668000	0.203180	0.002032
247.522000	0.202585	0.002026
247.376000	0.201928	0.002019
247.236000	0.201409	0.002014
247.098000	0.200955	0.002010
246.962000	0.200617	0.002006
246.826000	0.200394	0.002004
246.689000	0.200332	0.002003
246.557000	0.200443	0.002004
246.429000	0.200832	0.002008
246.302000	0.201181	0.002012
246.176000	0.201567	0.002016
246.051000	0.201942	0.002019
245.928000	0.202260	0.002023
245.807000	0.202520	0.002025
245.685000	0.202763	0.002028
245.563000	0.202966	0.002030
245.439000	0.203132	0.002031
245.314000	0.203331	0.002033
245.191000	0.203347	0.002033
245.068000	0.203349	0.002033
244.947000	0.203290	0.002033
244.828000	0.203166	0.002032
244.706000	0.203009	0.002030
244.584000	0.202825	0.002028
244.462000	0.202602	0.002026
244.338000	0.202355	0.002024
244.212000	0.202062	0.002021
244.084000	0.201768	0.002018
243.951000	0.201360	0.002014
243.815000	0.200981	0.002010
243.679000	0.200606	0.002006
243.540000	0.200218	0.002002
243.393000	0.199822	0.001998
243.242000	0.199456	0.001995
243.086000	0.199110	0.001991
242.929000	0.198779	0.001988
242.770000	0.198425	0.001984
242.616000	0.198200	0.001982
242.463000	0.198051	0.001981
242.316000	0.198014	0.001980
242.176000	0.198093	0.001981
242.037000	0.198302	0.001983
241.895000	0.198515	0.001985
241.748000	0.198748	0.001987
241.600000	0.198975	0.001990
241.454000	0.199193	0.001992
241.305000	0.199418	0.001994
241.158000	0.199609	0.001996
241.017000	0.199752	0.001998
240.877000	0.199802	0.001998
240.740000	0.199720	0.001997
240.605000	0.199481	0.001995
240.474000	0.199105	0.001991
240.346000	0.198674	0.001987
240.217000	0.198223	0.001982
240.091000	0.197644	0.001976
239.964000	0.197235	0.001972
239.838000	0.196822	0.001968
239.713000	0.196466	0.001965
239.586000	0.196184	0.001962
239.457000	0.195996	0.001960
239.331000	0.195890	0.001959
239.202000	0.195877	0.001959
239.076000	0.196073	0.001961
238.950000	0.196186	0.001962
238.825000	0.196372	0.001964
238.698000	0.196575	0.001966
238.570000	0.196758	0.001968
238.442000	0.196884	0.001969
238.320000	0.196972	0.001970
238.203000	0.197012	0.001970
238.085000	0.197017	0.001970
237.966000	0.196989	0.001970
237.842000	0.196923	0.001969
237.713000	0.197025	0.001970
237.579000	0.196876	0.001969
237.446000	0.196698	0.001967
237.306000	0.196500	0.001965
237.167000	0.196297	0.001963
237.027000	0.196071	0.001961
236.887000	0.195834	0.001958
236.745000	0.195604	0.001956
236.603000	0.195372	0.001954
236.459000	0.195154	0.001952
236.316000	0.194959	0.001950
236.173000	0.194768	0.001948
236.029000	0.194579	0.001946
235.881000	0.194403	0.001944
235.731000	0.194211	0.001942
235.580000	0.194034	0.001940
235.428000	0.193860	0.001939
235.279000	0.193711	0.001937
235.132000	0.193616	0.001936
234.985000	0.193609	0.001936
234.837000	0.193636	0.001936
234.689000	0.193741	0.001937
234.542000	0.193889	0.001939
234.398000	0.194042	0.001940
234.255000	0.194216	0.001942
234.115000	0.194397	0.001944
233.977000	0.194559	0.001946
233.842000	0.194749	0.001947
233.706000	0.194810	0.001948
233.576000	0.194809	0.001948
233.446000	0.194740	0.001947
233.317000	0.194612	0.001946
233.188000	0.194396	0.001944
233.063000	0.194101	0.001941
232.941000	0.193763	0.001938
232.821000	0.193406	0.001934
232.701000	0.193036	0.001930
232.583000	0.192679	0.001927
232.462000	0.192200	0.001922
232.338000	0.191899	0.001919
232.209000	0.191605	0.001916
232.073000	0.191339	0.001913
231.931000	0.191115	0.001911
231.788000	0.190851	0.001909
231.645000	0.190790	0.001908
231.501000	0.190731	0.001907
231.354000	0.190724	0.001907
231.207000	0.190767	0.001908
231.057000	0.190838	0.001908
230.905000	0.190891	0.001909
230.755000	0.190922	0.001909
230.603000	0.190914	0.001909
230.447000	0.190867	0.001909
230.287000	0.190753	0.001908
230.126000	0.190602	0.001906
229.966000	0.190383	0.001904
229.806000	0.190123	0.001901
229.647000	0.189858	0.001899
229.490000	0.189620	0.001896
229.333000	0.189376	0.001894
229.177000	0.189132	0.001891
229.022000	0.188914	0.001889
228.868000	0.188766	0.001888
228.715000	0.188561	0.001886
228.560000	0.188385	0.001884
228.404000	0.188214	0.001882
228.247000	0.188057	0.001881
228.088000	0.187848	0.001878
227.929000	0.187675	0.001877
227.769000	0.187496	0.001875
227.606000	0.187327	0.001873
227.440000	0.187066	0.001871
227.280000	0.186902	0.001869
227.121000	0.186772	0.001868
226.967000	0.186683	0.001867
226.816000	0.186623	0.001866
226.667000	0.186617	0.001866
226.516000	0.186651	0.001867
226.370000	0.186712	0.001867
226.225000	0.186785	0.001868
226.080000	0.186862	0.001869
225.939000	0.187041	0.001870
225.797000	0.187027	0.001870
225.655000	0.187035	0.001870
225.509000	0.186990	0.001870
225.361000	0.186888	0.001869
225.209000	0.186724	0.001867
225.054000	0.186525	0.001865
224.900000	0.186292	0.001863
224.748000	0.186049	0.001860
224.597000	0.186097	0.001861
224.448000	0.185862	0.001859
224.300000	0.185699	0.001857
224.153000	0.185603	0.001856
224.003000	0.185578	0.001856
223.852000	0.185611	0.001856
223.697000	0.185701	0.001857
223.542000	0.185836	0.001858
223.382000	0.185986	0.001860
223.221000	0.186130	0.001861
223.059000	0.186060	0.001861
222.896000	0.186172	0.001862
222.734000	0.186237	0.001862
222.577000	0.186250	0.001863
222.419000	0.186199	0.001862
222.264000	0.186097	0.001861
222.111000	0.185906	0.001859
221.957000	0.185606	0.001856
221.801000	0.185289	0.001853
221.643000	0.184944	0.001849
221.486000	0.184567	0.001846
221.331000	0.184192	0.001842
221.173000	0.183832	0.001838
221.017000	0.183489	0.001835
220.861000	0.183149	0.001831
220.706000	0.182827	0.001828
220.557000	0.182540	0.001825
220.412000	0.182290	0.001823
220.270000	0.182078	0.001821
220.130000	0.181893	0.001819
219.994000	0.181754	0.001818
219.861000	0.181609	0.001816
219.729000	0.181456	0.001815
219.599000	0.181303	0.001813
219.470000	0.181169	0.001812
219.338000	0.180963	0.001810
219.206000	0.180765	0.001808
219.079000	0.180591	0.001806
218.955000	0.180451	0.001805
218.829000	0.180348	0.001803
218.701000	0.180266	0.001803
218.571000	0.180194	0.001802
218.437000	0.180127	0.001801
218.304000	0.180084	0.001801
218.169000	0.180036	0.001800
218.035000	0.180002	0.001800
217.898000	0.179969	0.001800
217.761000	0.179928	0.001799
217.622000	0.180040	0.001800
217.483000	0.180003	0.001800
217.345000	0.179978	0.001800
217.208000	0.179931	0.001799
217.074000	0.179862	0.001799
216.942000	0.179806	0.001798
216.812000	0.179725	0.001797
216.684000	0.179666	0.001797
216.556000	0.179654	0.001797
216.432000	0.179616	0.001796
216.306000	0.179587	0.001796
216.184000	0.179570	0.001796
216.060000	0.179564	0.001796
215.937000	0.179551	0.001796
215.816000	0.179532	0.001795
215.694000	0.179514	0.001795
215.571000	0.179470	0.001795
215.445000	0.179438	0.001794
215.320000	0.179308	0.001793
215.194000	0.179238	0.001792
215.067000	0.179122	0.001791
214.941000	0.179021	0.001790
214.813000	0.178940	0.001789
214.689000	0.178874	0.001789
214.567000	0.178838	0.001788
214.445000	0.178828	0.001788
214.320000	0.178826	0.001788
214.194000	0.178826	0.001788
214.067000	0.178810	0.001788
213.938000	0.178778	0.001788
213.809000	0.178722	0.001787
213.682000	0.178657	0.001787
213.556000	0.178568	0.001786
213.432000	0.178559	0.001786
213.309000	0.178451	0.001785
213.189000	0.178302	0.001783
213.067000	0.178117	0.001781
212.946000	0.177938	0.001779
212.824000	0.177702	0.001777
212.698000	0.177442	0.001774
212.565000	0.177183	0.001772
212.429000	0.176939	0.001769
212.287000	0.176725	0.001767
212.142000	0.176523	0.001765
211.997000	0.176341	0.001763
211.853000	0.176167	0.001762
211.712000	0.175998	0.001760
211.575000	0.175846	0.001758
211.438000	0.175691	0.001757
211.304000	0.175536	0.001755
211.170000	0.175367	0.001754
211.036000	0.175195	0.001752
210.902000	0.174714	0.001747
210.767000	0.174521	0.001745
210.632000	0.174285	0.001743
210.497000	0.174032	0.001740
210.361000	0.173889	0.001739
210.226000	0.173579	0.001736
210.089000	0.173313	0.001733
209.950000	0.173099	0.001731
209.809000	0.172959	0.001730
209.666000	0.172902	0.001729
209.519000	0.172949	0.001729
209.371000	0.173072	0.001731
209.225000	0.173261	0.001733
209.077000	0.173507	0.001735
208.931000	0.173803	0.001738
208.790000	0.174127	0.001741
208.649000	0.174485	0.001745
208.514000	0.174913	0.001749
208.378000	0.175319	0.001753
208.244000	0.175694	0.001757
208.112000	0.176044	0.001760
207.979000	0.176321	0.001763
207.848000	0.176460	0.001765
207.718000	0.176489	0.001765
207.587000	0.176336	0.001763
207.456000	0.176069	0.001761
207.325000	0.175719	0.001757
207.194000	0.175344	0.001753
207.062000	0.174959	0.001750
206.930000	0.174613	0.001746
206.797000	0.174293	0.001743
206.665000	0.174004	0.001740
206.531000	0.173755	0.001738
206.395000	0.173562	0.001736
206.259000	0.173354	0.001734
206.124000	0.173227	0.001732
205.986000	0.173103	0.001731
205.847000	0.172982	0.001730
205.708000	0.172852	0.001729
205.567000	0.172711	0.001727
205.426000	0.172556	0.001726
205.277000	0.172393	0.001724
205.125000	0.172263	0.001723
204.971000	0.172088	0.001721
204.820000	0.171930	0.001719
204.670000	0.171775	0.001718
204.519000	0.171645	0.001716
204.369000	0.171517	0.001715
204.217000	0.171417	0.001714
204.068000	0.171321	0.001713
203.918000	0.171236	0.001712
203.769000	0.171174	0.001712
203.623000	0.171128	0.001711
203.479000	0.171079	0.001711
203.334000	0.171029	0.001710
203.188000	0.170969	0.001710
203.040000	0.170866	0.001709
202.889000	0.170785	0.001708
202.738000	0.170719	0.001707
202.587000	0.170660	0.001707
202.438000	0.170689	0.001707
202.291000	0.170683	0.001707
202.147000	0.170760	0.001708
202.009000	0.170907	0.001709
201.874000	0.171124	0.001711
201.745000	0.171393	0.001714
201.617000	0.171785	0.001718
201.490000	0.172147	0.001721
201.366000	0.172540	0.001725
201.243000	0.172864	0.001729
201.118000	0.173037	0.001730
200.990000	0.173022	0.001730
200.858000	0.172812	0.001728
200.724000	0.172429	0.001724
200.588000	0.171947	0.001719
200.453000	0.171445	0.001714
200.318000	0.170948	0.001709
200.184000	0.170470	0.001705
200.051000	0.170023	0.001700
199.919000	0.169653	0.001697
199.790000	0.169211	0.001692
199.663000	0.168838	0.001688
199.539000	0.168588	0.001686
199.418000	0.168448	0.001684
199.299000	0.168530	0.001685
199.183000	0.168781	0.001688
199.070000	0.169114	0.001691
198.955000	0.169478	0.001695
198.842000	0.169852	0.001699
198.728000	0.170206	0.001702
198.613000	0.170514	0.001705
198.500000	0.170805	0.001708
198.385000	0.171050	0.001711
198.269000	0.171232	0.001712
198.151000	0.171324	0.001713
198.031000	0.171304	0.001713
197.911000	0.171170	0.001712
197.790000	0.170930	0.001709
197.669000	0.170570	0.001706
197.549000	0.170276	0.001703
197.427000	0.170020	0.001700
197.304000	0.169800	0.001698
197.182000	0.169603	0.001696
197.059000	0.169420	0.001694
196.935000	0.169113	0.001691
196.813000	0.168967	0.001690
196.690000	0.168765	0.001688
196.568000	0.168516	0.001685
196.448000	0.168219	0.001682
196.327000	0.167897	0.001679
196.204000	0.167538	0.001675
196.081000	0.167178	0.001672
195.956000	0.166834	0.001668
195.827000	0.166479	0.001665
195.698000	0.166199	0.001662
195.571000	0.165945	0.001659
195.450000	0.165717	0.001657
195.334000	0.165558	0.001656
195.222000	0.165388	0.001654
195.108000	0.165247	0.001652
194.994000	0.165157	0.001652
194.882000	0.165127	0.001651
194.770000	0.165203	0.001652
194.660000	0.165363	0.001654
194.551000	0.165694	0.001657
194.442000	0.166096	0.001661
194.335000	0.166510	0.001665
194.226000	0.166841	0.001668
194.117000	0.167072	0.001671
194.009000	0.167149	0.001671
193.902000	0.167115	0.001671
193.798000	0.167007	0.001670
193.697000	0.166844	0.001668
193.594000	0.166637	0.001666
193.491000	0.166419	0.001664
193.386000	0.166177	0.001662
193.280000	0.165935	0.001659
193.172000	0.165729	0.001657
193.063000	0.165515	0.001655
192.952000	0.165362	0.001654
192.840000	0.165367	0.001654
192.728000	0.165559	0.001656
192.616000	0.165877	0.001659
192.505000	0.166312	0.001663
192.393000	0.166741	0.001667
192.280000	0.167163	0.001672
192.167000	0.167544	0.001675
192.055000	0.167919	0.001679
191.947000	0.168220	0.001682
191.839000	0.168460	0.001685
191.731000	0.168622	0.001686
191.622000	0.168688	0.001687
191.512000	0.168642	0.001686
191.401000	0.168494	0.001685
191.289000	0.168251	0.001683
191.172000	0.167934	0.001679
191.054000	0.167587	0.001676
190.932000	0.167287	0.001673
190.810000	0.166974	0.001670
190.686000	0.166688	0.001667
190.559000	0.166361	0.001664
190.431000	0.166112	0.001661
190.301000	0.165817	0.001658
190.170000	0.165531	0.001655
190.038000	0.165231	0.001652
189.904000	0.164925	0.001649
189.770000	0.164621	0.001646
189.636000	0.164295	0.001643
189.503000	0.163996	0.001640
189.370000	0.163797	0.001638
189.238000	0.163777	0.001638
189.105000	0.163981	0.001640
188.971000	0.164413	0.001644
188.834000	0.165035	0.001650
188.695000	0.165772	0.001658
188.558000	0.166549	0.001665
188.419000	0.167403	0.001674
188.279000	0.168175	0.001682
188.139000	0.168929	0.001689
188.000000	0.169619	0.001696
187.858000	0.170406	0.001704
187.716000	0.171150	0.001712
187.574000	0.171762	0.001718
187.432000	0.172260	0.001723
187.291000	0.172500	0.001725
187.154000	0.172483	0.001725
187.017000	0.172310	0.001723
186.883000	0.172002	0.001720
186.753000	0.171583	0.001716
186.624000	0.171068	0.001711
186.495000	0.170620	0.001706
186.364000	0.170191	0.001702
186.231000	0.169840	0.001698
186.095000	0.169578	0.001696
185.962000	0.169451	0.001695
185.829000	0.169461	0.001695
185.692000	0.169643	0.001696
185.557000	0.169965	0.001700
185.422000	0.170460	0.001705
185.286000	0.170957	0.001710
185.150000	0.171474	0.001715
185.012000	0.172031	0.001720
184.875000	0.172624	0.001726
184.737000	0.173238	0.001732
184.600000	0.173873	0.001739
184.462000	0.174516	0.001745
184.325000	0.175171	0.001752
184.187000	0.175821	0.001758
184.048000	0.176461	0.001765
183.908000	0.177067	0.001771
183.765000	0.177638	0.001776
183.622000	0.178173	0.001782
183.478000	0.178672	0.001787
183.334000	0.179171	0.001792
183.188000	0.179580	0.001796
183.042000	0.179963	0.001800
182.895000	0.180278	0.001803
182.748000	0.180598	0.001806
182.601000	0.180940	0.001809
182.454000	0.181299	0.001813
182.306000	0.181653	0.001817
182.162000	0.182072	0.001821
182.020000	0.182519	0.001825
181.879000	0.182988	0.001830
181.739000	0.183473	0.001835
181.597000	0.184004	0.001840
181.457000	0.184587	0.001846
181.318000	0.185259	0.001853
181.178000	0.186040	0.001860
181.037000	0.186930	0.001869
180.896000	0.187912	0.001879
180.753000	0.188932	0.001889
180.611000	0.189972	0.001900
180.468000	0.191006	0.001910
180.325000	0.192029	0.001920
180.182000	0.193025	0.001930
180.039000	0.193970	0.001940
179.898000	0.194911	0.001949
179.757000	0.195872	0.001959
179.617000	0.196791	0.001968
179.476000	0.197582	0.001976
179.335000	0.198204	0.001982
179.193000	0.198735	0.001987
179.051000	0.199202	0.001992
178.908000	0.199670	0.001997
178.765000	0.200131	0.002001
178.623000	0.200605	0.002006
178.482000	0.201075	0.002011
178.343000	0.201567	0.002016
178.204000	0.202098	0.002021
178.062000	0.202659	0.002027
177.921000	0.203327	0.002033
177.779000	0.204101	0.002041
177.640000	0.204983	0.002050
177.500000	0.205991	0.002060
177.362000	0.207055	0.002071
177.225000	0.208269	0.002083
177.088000	0.209506	0.002095
176.950000	0.210834	0.002108
176.809000	0.212233	0.002122
176.669000	0.213709	0.002137
176.529000	0.215251	0.002153
176.389000	0.216926	0.002169
176.250000	0.218637	0.002186
176.111000	0.220382	0.002204
175.973000	0.222160	0.002222
175.835000	0.223952	0.002240
175.699000	0.225752	0.002258
175.567000	0.227536	0.002275
175.432000	0.229290	0.002293
175.298000	0.231013	0.002310
175.166000	0.232685	0.002327
175.031000	0.234292	0.002343
174.897000	0.235866	0.002359
174.764000	0.237408	0.002374
174.632000	0.238858	0.002389
174.500000	0.240344	0.002403
174.368000	0.241971	0.002420
174.234000	0.243717	0.002437
174.100000	0.245601	0.002456
173.967000	0.247657	0.002477
173.833000	0.249903	0.002499
173.699000	0.252362	0.002524
173.564000	0.255022	0.002550
173.428000	0.257915	0.002579
173.293000	0.261044	0.002610
173.158000	0.264409	0.002644
173.023000	0.268022	0.002680
172.890000	0.271856	0.002719
172.760000	0.275893	0.002759
172.633000	0.279975	0.002800
172.506000	0.284138	0.002841
172.383000	0.288340	0.002883
172.262000	0.292575	0.002926
172.142000	0.296827	0.002968
172.022000	0.301092	0.003011
171.900000	0.305370	0.003054
171.778000	0.309679	0.003097
171.657000	0.314014	0.003140
171.536000	0.318355	0.003184
171.418000	0.322711	0.003227
171.301000	0.327092	0.003271
171.183000	0.331462	0.003315
171.068000	0.335836	0.003358
170.955000	0.340220	0.003402
170.843000	0.344633	0.003446
170.732000	0.349084	0.003491
170.622000	0.353578	0.003536
170.512000	0.358130	0.003581
170.402000	0.362752	0.003628
170.291000	0.367437	0.003674
170.181000	0.372168	0.003722
170.071000	0.376950	0.003770
169.958000	0.381775	0.003818
169.847000	0.386646	0.003866
169.737000	0.391551	0.003916
169.625000	0.396539	0.003965
169.514000	0.401489	0.004015
169.402000	0.406479	0.004065
169.292000	0.411484	0.004115
169.180000	0.416513	0.004165
169.069000	0.421526	0.004215
168.956000	0.426539	0.004265
168.843000	0.431549	0.004315
168.732000	0.436551	0.004366
168.622000	0.441536	0.004415
168.511000	0.446538	0.004465
168.401000	0.451547	0.004515
168.286000	0.456559	0.004566
168.171000	0.461603	0.004616
168.057000	0.466685	0.004667
167.940000	0.471830	0.004718
167.823000	0.477036	0.004770
167.707000	0.482313	0.004823
167.593000	0.487674	0.004877
167.477000	0.493145	0.004931
167.361000	0.498735	0.004987
167.245000	0.504407	0.005044
167.130000	0.510189	0.005102
167.014000	0.516091	0.005161
166.898000	0.522119	0.005221
166.785000	0.528291	0.005283
166.671000	0.534567	0.005346
166.556000	0.540991	0.005410
166.442000	0.547560	0.005476
166.326000	0.554287	0.005543
166.211000	0.561180	0.005612
166.097000	0.568249	0.005682
165.984000	0.575516	0.005755
165.869000	0.582995	0.005830
165.754000	0.590730	0.005907
165.640000	0.598679	0.005987
165.523000	0.606869	0.006069
165.407000	0.615283	0.006153
165.289000	0.623905	0.006239
165.171000	0.632792	0.006328
165.055000	0.641833	0.006418
164.939000	0.651082	0.006511
164.827000	0.660521	0.006605
164.717000	0.670158	0.006702
164.609000	0.679971	0.006800
164.502000	0.689996	0.006900
164.396000	0.700159	0.007002
164.292000	0.710502	0.007105
164.186000	0.721037	0.007210
164.078000	0.731747	0.007317
163.972000	0.742625	0.007426
163.864000	0.753673	0.007537
163.755000	0.764871	0.007649
163.647000	0.776211	0.007762
163.540000	0.787655	0.007877
163.432000	0.799199	0.007992
163.326000	0.810834	0.008108
163.218000	0.822490	0.008225
163.109000	0.834245	0.008342
163.001000	0.846096	0.008461
162.891000	0.857869	0.008579
162.782000	0.869622	0.008696
162.671000	0.881307	0.008813
162.560000	0.892922	0.008929
162.449000	0.904410	0.009044
162.337000	0.915756	0.009158
162.224000	0.926967	0.009270
162.110000	0.938058	0.009381
161.995000	0.949029	0.009490
161.880000	0.959890	0.009599
161.765000	0.970658	0.009707
161.648000	0.981330	0.009813
161.531000	0.991906	0.009919
161.412000	1.002400	0.010024
161.294000	1.012810	0.010128
161.175000	1.023150	0.010232
161.055000	1.033460	0.010335
160.934000	1.043740	0.010437
160.812000	1.054020	0.010540
160.690000	1.064320	0.010643
160.567000	1.074630	0.010746
160.444000	1.084940	0.010849
160.320000	1.095240	0.010952
160.193000	1.105550	0.011056
160.068000	1.115900	0.011159
159.943000	1.126250	0.011263
159.818000	1.136680	0.011367
159.694000	1.147200	0.011472
159.571000	1.157810	0.011578
159.444000	1.168590	0.011686
159.318000	1.179480	0.011795
159.189000	1.190490	0.011905
159.057000	1.201630	0.012016
158.923000	1.212920	0.012129
158.786000	1.224330	0.012243
158.647000	1.235920	0.012359
158.508000	1.247690	0.012477
158.367000	1.259620	0.012596
158.226000	1.271750	0.012718
158.084000	1.284030	0.012840
157.944000	1.296460	0.012965
157.805000	1.309130	0.013091
157.667000	1.321970	0.013220
157.532000	1.334940	0.013349
157.398000	1.348040	0.013480
157.264000	1.361240	0.013612
157.130000	1.374540	0.013745
156.998000	1.387930	0.013879
156.864000	1.401440	0.014014
156.731000	1.415030	0.014150
156.597000	1.428690	0.014287
156.465000	1.442430	0.014424
156.334000	1.456220	0.014562
156.205000	1.469840	0.014698
156.077000	1.483680	0.014837
155.949000	1.497540	0.014975
155.821000	1.511390	0.015114
155.694000	1.525240	0.015252
155.566000	1.539090	0.015391
155.438000	1.552890	0.015529
155.309000	1.566680	0.015667
155.178000	1.580410	0.015804
155.046000	1.594050	0.015941
154.913000	1.607580	0.016076
154.779000	1.621000	0.016210
154.643000	1.634290	0.016343
154.504000	1.647420	0.016474
154.363000	1.660380	0.016604
154.217000	1.673200	0.016732
154.069000	1.685850	0.016859
153.917000	1.698360	0.016984
153.763000	1.710680	0.017107
153.608000	1.722810	0.017228
153.452000	1.734740	0.017347
153.295000	1.746460	0.017465
153.138000	1.757960	0.017580
152.980000	1.769240	0.017692
152.823000	1.780310	0.017803
152.663000	1.791170	0.017912
152.504000	1.801780	0.018018
152.345000	1.812160	0.018122
152.186000	1.822280	0.018223
152.028000	1.832150	0.018322
151.870000	1.841740	0.018417
151.713000	1.851080	0.018511
151.555000	1.860150	0.018602
151.398000	1.868960	0.018690
151.242000	1.877530	0.018775
151.086000	1.885880	0.018859
150.928000	1.894030	0.018940
150.773000	1.902000	0.019020
150.620000	1.909780	0.019098
150.467000	1.917410	0.019174
150.315000	1.924920	0.019249
150.163000	1.932280	0.019323
150.013000	1.939640	0.019396
149.863000	1.946980	0.019470
149.715000	1.954360	0.019544
149.571000	1.961740	0.019617
149.426000	1.969180	0.019692
149.280000	1.976660	0.019767
149.136000	1.984170	0.019842
148.993000	1.991700	0.019917
148.849000	1.999220	0.019992
148.708000	2.006750	0.020068
148.567000	2.014290	0.020143
148.428000	2.021830	0.020218
148.292000	2.029370	0.020294
148.157000	2.036900	0.020369
148.025000	2.044440	0.020444
147.894000	2.051980	0.020520
147.763000	2.059410	0.020594
147.632000	2.066990	0.020670
147.501000	2.074670	0.020747
147.371000	2.082350	0.020824
147.240000	2.090090	0.020901
147.106000	2.097860	0.020979
146.972000	2.105690	0.021057
146.835000	2.113540	0.021135
146.696000	2.121410	0.021214
146.556000	2.129250	0.021293
146.414000	2.137070	0.021371
146.271000	2.144890	0.021449
146.128000	2.152620	0.021526
145.985000	2.160280	0.021603
145.840000	2.167830	0.021678
145.693000	2.175240	0.021752
145.544000	2.182500	0.021825
145.393000	2.189590	0.021896
145.239000	2.196460	0.021965
145.086000	2.203130	0.022031
144.932000	2.209570	0.022096
144.775000	2.215860	0.022159
144.619000	2.221930	0.022219
144.460000	2.227820	0.022278
144.301000	2.233490	0.022335
144.140000	2.238980	0.022390
143.976000	2.244240	0.022442
143.811000	2.249280	0.022493
143.647000	2.254150	0.022542
143.485000	2.258830	0.022588
143.324000	2.263250	0.022633
143.164000	2.267480	0.022675
143.008000	2.271530	0.022715
142.853000	2.275430	0.022754
142.699000	2.279170	0.022792
142.547000	2.282770	0.022828
142.395000	2.286250	0.022863
142.243000	2.289520	0.022895
142.090000	2.292770	0.022928
141.939000	2.295900	0.022959
141.788000	2.298960	0.022990
141.639000	2.301950	0.023020
141.491000	2.305090	0.023051
141.343000	2.307950	0.023080
141.196000	2.310760	0.023108
141.047000	2.313510	0.023135
140.899000	2.316180	0.023162
140.753000	2.318760	0.023188
140.608000	2.321290	0.023213
140.464000	2.323730	0.023237
140.319000	2.326140	0.023261
140.176000	2.328540	0.023285
140.035000	2.330950	0.023310
139.893000	2.333380	0.023334
139.751000	2.335840	0.023358
139.607000	2.338360	0.023384
139.463000	2.340970	0.023410
139.317000	2.343590	0.023436
139.171000	2.346300	0.023463
139.025000	2.349040	0.023490
138.878000	2.351850	0.023519
138.732000	2.354740	0.023547
138.586000	2.357690	0.023577
138.440000	2.360660	0.023607
138.295000	2.363660	0.023637
138.150000	2.366660	0.023667
138.005000	2.369670	0.023697
137.860000	2.372680	0.023727
137.716000	2.375690	0.023757
137.573000	2.378680	0.023787
137.430000	2.381590	0.023816
137.287000	2.384520	0.023845
137.144000	2.387450	0.023875
137.003000	2.390340	0.023903
136.861000	2.393240	0.023932
136.721000	2.396130	0.023961
136.580000	2.399010	0.023990
136.438000	2.401880	0.024019
136.296000	2.404740	0.024047
136.152000	2.407600	0.024076
136.009000	2.410450	0.024105
135.864000	2.413290	0.024133
135.720000	2.416100	0.024161
135.576000	2.418900	0.024189
135.431000	2.421580	0.024216
135.287000	2.424180	0.024242
135.142000	2.426660	0.024267
134.998000	2.429030	0.024290
134.852000	2.431280	0.024313
134.707000	2.433450	0.024335
134.563000	2.435480	0.024355
134.420000	2.437530	0.024375
134.278000	2.439440	0.024394
134.135000	2.441300	0.024413
133.990000	2.443120	0.024431
133.845000	2.444920	0.024449
133.702000	2.446680	0.024467
133.558000	2.448370	0.024484
133.417000	2.450060	0.024501
133.276000	2.451720	0.024517
133.138000	2.453420	0.024534
133.003000	2.454930	0.024549
132.868000	2.456280	0.024563
132.733000	2.457570	0.024576
132.597000	2.458730	0.024587
132.460000	2.459770	0.024598
132.322000	2.460670	0.024607
132.184000	2.461440	0.024614
132.047000	2.462100	0.024621
131.912000	2.462660	0.024627
131.775000	2.463140	0.024631
131.638000	2.463540	0.024635
131.502000	2.463920	0.024639
131.366000	2.464300	0.024643
131.228000	2.464730	0.024647
131.091000	2.465200	0.024652
130.952000	2.465730	0.024657
130.814000	2.466320	0.024663
130.674000	2.466970	0.024670
130.536000	2.467700	0.024677
130.398000	2.468500	0.024685
130.261000	2.469320	0.024693
130.122000	2.470180	0.024702
129.982000	2.471080	0.024711
129.842000	2.471990	0.024720
129.701000	2.472860	0.024729
129.560000	2.473780	0.024738
129.416000	2.474720	0.024747
129.275000	2.475670	0.024757
129.135000	2.476410	0.024764
128.994000	2.477400	0.024774
128.854000	2.478420	0.024784
128.714000	2.479480	0.024795
128.575000	2.480580	0.024806
128.435000	2.481700	0.024817
128.296000	2.482920	0.024829
128.158000	2.484110	0.024841
128.019000	2.485410	0.024854
127.881000	2.486680	0.024867
127.742000	2.487990	0.024880
127.603000	2.489330	0.024893
127.462000	2.490710	0.024907
127.322000	2.492080	0.024921
127.181000	2.493470	0.024935
127.040000	2.494860	0.024949
126.899000	2.496270	0.024963
126.757000	2.497660	0.024977
126.616000	2.499050	0.024991
126.473000	2.500470	0.025005
126.331000	2.501920	0.025019
126.190000	2.503360	0.025034
126.049000	2.504770	0.025048
125.909000	2.506120	0.025061
125.769000	2.507410	0.025074
125.629000	2.508650	0.025087
125.491000	2.509810	0.025098
125.352000	2.510860	0.025109
125.211000	2.511830	0.025118
125.069000	2.512680	0.025127
124.925000	2.513420	0.025134
124.782000	2.514040	0.025140
124.640000	2.514530	0.025145
124.498000	2.514900	0.025149
124.356000	2.515150	0.025152
124.214000	2.515300	0.025153
124.073000	2.515350	0.025154
123.931000	2.515130	0.025151
123.789000	2.515050	0.025151
123.649000	2.514990	0.025150
123.511000	2.514930	0.025149
123.372000	2.514980	0.025150
123.234000	2.515020	0.025150
123.097000	2.515080	0.025151
122.961000	2.515200	0.025152
122.825000	2.515300	0.025153
122.688000	2.515400	0.025154
122.551000	2.515470	0.025155
122.414000	2.515530	0.025155
122.276000	2.515600	0.025156
122.140000	2.515660	0.025157
122.003000	2.515760	0.025158
121.866000	2.515910	0.025159
121.728000	2.516150	0.025162
121.589000	2.516670	0.025167
121.449000	2.517170	0.025172
121.310000	2.517760	0.025178
121.169000	2.518470	0.025185
121.028000	2.519260	0.025193
120.888000	2.520120	0.025201
120.748000	2.520990	0.025210
120.607000	2.521940	0.025219
120.465000	2.522780	0.025228
120.324000	2.523670	0.025237
120.184000	2.524530	0.025245
120.045000	2.525330	0.025253
119.906000	2.526060	0.025261
119.767000	2.526740	0.025267
119.627000	2.527400	0.025274
119.487000	2.527950	0.025280
119.347000	2.528370	0.025284
119.207000	2.528620	0.025286
119.066000	2.528980	0.025290
118.924000	2.529350	0.025294
118.781000	2.529720	0.025297
118.636000	2.530110	0.025301
118.491000	2.530520	0.025305
118.343000	2.530940	0.025309
118.196000	2.531400	0.025314
118.047000	2.531890	0.025319
117.898000	2.532440	0.025324
117.748000	2.533020	0.025330
117.598000	2.533640	0.025336
117.448000	2.534310	0.025343
117.296000	2.534960	0.025350
117.144000	2.535580	0.025356
116.992000	2.536170	0.025362
116.840000	2.536720	0.025367
116.687000	2.537230	0.025372
116.534000	2.537550	0.025376
116.382000	2.537940	0.025379
116.230000	2.538320	0.025383
116.079000	2.538670	0.025387
115.928000	2.539040	0.025390
115.780000	2.539420	0.025394
115.631000	2.539850	0.025399
115.484000	2.540370	0.025404
115.338000	2.540920	0.025409
115.193000	2.541550	0.025416
115.048000	2.542220	0.025422
114.903000	2.543160	0.025432
114.755000	2.543900	0.025439
114.607000	2.544590	0.025446
114.461000	2.545260	0.025453
114.315000	2.545870	0.025459
114.173000	2.546440	0.025464
114.032000	2.546900	0.025469
113.893000	2.547410	0.025474
113.754000	2.547820	0.025478
113.617000	2.548180	0.025482
113.481000	2.548510	0.025485
113.344000	2.548790	0.025488
113.207000	2.549030	0.025490
113.070000	2.549320	0.025493
112.932000	2.549480	0.025495
112.794000	2.549620	0.025496
112.657000	2.549700	0.025497
112.518000	2.549720	0.025497
112.376000	2.549700	0.025497
112.234000	2.549560	0.025496
112.090000	2.549340	0.025493
111.944000	2.549050	0.025491
111.800000	2.548710	0.025487
111.656000	2.548340	0.025483
111.511000	2.548060	0.025481
111.364000	2.547700	0.025477
111.218000	2.547380	0.025474
111.070000	2.547100	0.025471
110.921000	2.546910	0.025469
110.771000	2.546800	0.025468
110.621000	2.546760	0.025468
110.468000	2.546810	0.025468
110.319000	2.546950	0.025470
110.167000	2.547150	0.025472
110.014000	2.547470	0.025475
109.863000	2.547850	0.025479
109.709000	2.548310	0.025483
109.557000	2.549050	0.025491
109.404000	2.549650	0.025497
109.248000	2.550290	0.025503
109.091000	2.550970	0.025510
108.933000	2.551740	0.025517
108.773000	2.552490	0.025525
108.616000	2.553240	0.025532
108.461000	2.553990	0.025540
108.308000	2.554790	0.025548
108.156000	2.555600	0.025556
108.007000	2.556440	0.025564
107.858000	2.557260	0.025573
107.710000	2.558060	0.025581
107.563000	2.558830	0.025588
107.417000	2.559530	0.025595
107.273000	2.560140	0.025601
107.130000	2.560640	0.025606
106.986000	2.560850	0.025609
106.842000	2.561040	0.025610
106.698000	2.561120	0.025611
106.553000	2.561020	0.025610
106.408000	2.560770	0.025608
106.266000	2.560390	0.025604
106.124000	2.559910	0.025599
105.982000	2.559320	0.025593
105.843000	2.558720	0.025587
105.704000	2.558130	0.025581
105.566000	2.557570	0.025576
105.427000	2.557090	0.025571
105.288000	2.556720	0.025567
105.149000	2.556410	0.025564
105.011000	2.556140	0.025561
104.870000	2.555950	0.025560
104.728000	2.555880	0.025559
104.586000	2.556010	0.025560
104.443000	2.556060	0.025561
104.302000	2.556150	0.025562
104.159000	2.556270	0.025563
104.018000	2.556440	0.025564
103.877000	2.556760	0.025568
103.735000	2.556980	0.025570
103.592000	2.557240	0.025572
103.448000	2.557540	0.025575
103.304000	2.557870	0.025579
103.158000	2.558240	0.025582
103.010000	2.558630	0.025586
102.861000	2.559050	0.025591
102.707000	2.559520	0.025595
102.553000	2.560030	0.025600
102.399000	2.560560	0.025606
102.247000	2.561120	0.025611
102.095000	2.561710	0.025617
101.945000	2.562460	0.025625
101.792000	2.563080	0.025631
101.639000	2.563670	0.025637
101.486000	2.564250	0.025643
101.334000	2.564790	0.025648
101.183000	2.565220	0.025652
101.034000	2.565630	0.025656
100.888000	2.565900	0.025659
100.745000	2.566070	0.025661
100.604000	2.566060	0.025661
100.465000	2.565920	0.025659
100.328000	2.565640	0.025656
100.192000	2.565250	0.025653
100.061000	2.564810	0.025648
99.933800	2.564330	0.025643
99.807400	2.563820	0.025638
99.684700	2.563300	0.025633
99.563600	2.562810	0.025628
99.441400	2.562310	0.025623
99.322400	2.561900	0.025619
99.203600	2.561520	0.025615
99.083700	2.561180	0.025612
98.965800	2.560810	0.025608
98.846200	2.560500	0.025605
98.726100	2.560170	0.025602
98.606300	2.559970	0.025600
98.488800	2.559820	0.025598
98.371500	2.559750	0.025598
98.255900	2.559800	0.025598
98.140000	2.559950	0.025600
98.021200	2.560220	0.025602
97.901500	2.560590	0.025606
97.780400	2.561020	0.025610
97.659800	2.561490	0.025615
97.540900	2.562020	0.025620
97.420400	2.562480	0.025625
97.297500	2.563040	0.025630
97.175600	2.563590	0.025636
97.052400	2.564110	0.025641
96.928500	2.564630	0.025646
96.803300	2.565120	0.025651
96.678600	2.565630	0.025656
96.554700	2.566120	0.025661
96.432700	2.566630	0.025666
96.309900	2.567140	0.025671
96.185600	2.567620	0.025676
96.062300	2.568130	0.025681
95.938000	2.568590	0.025686
95.812700	2.568970	0.025690
95.688400	2.569220	0.025692
95.562600	2.569360	0.025694
95.436300	2.569340	0.025693
95.310300	2.569120	0.025691
95.185900	2.568830	0.025688
95.060800	2.568400	0.025684
94.934900	2.567910	0.025679
94.806700	2.567340	0.025673
94.676300	2.566620	0.025666
94.544500	2.566050	0.025661
94.409300	2.565520	0.025655
94.275700	2.565030	0.025650
94.142500	2.564580	0.025646
94.009900	2.564210	0.025642
93.879800	2.563910	0.025639
93.751900	2.563670	0.025637
93.624500	2.563540	0.025635
93.497500	2.563460	0.025635
93.368400	2.563430	0.025634
93.239300	2.563500	0.025635
93.108100	2.563660	0.025637
92.979200	2.563920	0.025639
92.851800	2.564250	0.025643
92.725700	2.564660	0.025647
92.597600	2.565080	0.025651
92.469000	2.565510	0.025655
92.338600	2.565830	0.025658
92.210700	2.566210	0.025662
92.082800	2.566510	0.025665
91.954800	2.566830	0.025668
91.828800	2.567160	0.025672
91.703600	2.567530	0.025675
91.577700	2.567900	0.025679
91.448400	2.568300	0.025683
91.315400	2.568780	0.025688
91.179800	2.569230	0.025692
91.041900	2.569670	0.025697
90.902200	2.570070	0.025701
90.761200	2.570290	0.025703
90.620700	2.570570	0.025706
90.480100	2.570770	0.025708
90.338300	2.570870	0.025709
90.195600	2.570860	0.025709
90.052900	2.570820	0.025708
89.909900	2.570680	0.025707
89.766000	2.570420	0.025704
89.623500	2.570080	0.025701
89.483800	2.569680	0.025697
89.344900	2.569260	0.025693
89.207200	2.568820	0.025688
89.069100	2.568370	0.025684
88.931400	2.567940	0.025679
88.791700	2.567530	0.025675
88.651300	2.567170	0.025672
88.509100	2.566830	0.025668
88.366600	2.566530	0.025665
88.222500	2.566320	0.025663
88.077800	2.566040	0.025660
87.932000	2.565890	0.025659
87.782100	2.565800	0.025658
87.630600	2.565820	0.025658
87.481000	2.566130	0.025661
87.335300	2.566360	0.025664
87.188700	2.566650	0.025667
87.043500	2.566990	0.025670
86.899300	2.567400	0.025674
86.756300	2.567840	0.025678
86.612400	2.568320	0.025683
86.465900	2.568800	0.025688
86.317400	2.569280	0.025693
86.170000	2.569710	0.025697
86.023100	2.570160	0.025702
85.874700	2.570600	0.025706
85.728600	2.571060	0.025711
85.582700	2.571480	0.025715
85.437100	2.571860	0.025719
85.293400	2.572200	0.025722
85.150400	2.572500	0.025725
85.006900	2.572720	0.025727
84.861500	2.572960	0.025730
84.716000	2.573080	0.025731
84.572900	2.573150	0.025732
84.431500	2.573160	0.025732
84.291100	2.573140	0.025731
84.151800	2.573110	0.025731
84.014000	2.573040	0.025730
83.873900	2.572940	0.025729
83.732600	2.572760	0.025728
83.589700	2.572580	0.025726
83.445300	2.572370	0.025724
83.301000	2.572100	0.025721
83.156700	2.571820	0.025718
83.011400	2.571460	0.025715
82.870400	2.571060	0.025711
82.731300	2.570620	0.025706
82.593000	2.570170	0.025702
82.453500	2.569970	0.025700
82.311700	2.569540	0.025695
82.169600	2.569130	0.025691
82.029300	2.568820	0.025688
81.892300	2.568610	0.025686
81.756400	2.568520	0.025685
81.622500	2.568570	0.025686
81.491700	2.568710	0.025687
81.360900	2.568920	0.025689
81.230600	2.569280	0.025693
81.098400	2.569660	0.025697
80.963900	2.570080	0.025701
80.830100	2.570610	0.025706
80.699600	2.570980	0.025710
80.569300	2.571290	0.025713
80.437900	2.571570	0.025716
80.304000	2.571770	0.025718
80.168900	2.571930	0.025719
80.031600	2.571900	0.025719
79.893900	2.571960	0.025720
79.757000	2.571980	0.025720
79.617900	2.572020	0.025720
79.477800	2.572060	0.025721
79.336800	2.572130	0.025721
79.195000	2.572190	0.025722
79.050300	2.572300	0.025723
78.902800	2.572410	0.025724
78.754800	2.572550	0.025726
78.605900	2.572690	0.025727
78.456400	2.572840	0.025728
78.306800	2.573060	0.025731
78.157900	2.573170	0.025732
78.007100	2.573230	0.025732
77.858800	2.573230	0.025732
77.711300	2.573180	0.025732
77.566000	2.573050	0.025731
77.423500	2.572830	0.025728
77.283000	2.572600	0.025726
77.145500	2.572260	0.025723
77.009000	2.571930	0.025719
76.871800	2.571590	0.025716
76.732300	2.571300	0.025713
76.595700	2.571090	0.025711
76.460500	2.570970	0.025710
76.327500	2.570940	0.025709
76.195400	2.570990	0.025710
76.064700	2.571170	0.025712
75.936800	2.571350	0.025714
75.809300	2.571630	0.025716
75.682100	2.571960	0.025720
75.555000	2.572320	0.025723
75.429700	2.572650	0.025727
75.302100	2.572960	0.025730
75.171500	2.573250	0.025733
75.038400	2.573240	0.025732
74.904400	2.573410	0.025734
74.769100	2.573580	0.025736
74.632100	2.573670	0.025737
74.495400	2.573760	0.025738
74.359400	2.573750	0.025738
74.223300	2.573770	0.025738
74.088800	2.573820	0.025738
73.954200	2.573790	0.025738
73.820000	2.573770	0.025738
73.686000	2.573730	0.025737
73.552300	2.573500	0.025735
73.417700	2.573440	0.025734
73.285200	2.573400	0.025734
73.151700	2.573370	0.025734
73.017600	2.573340	0.025733
72.881500	2.573300	0.025733
72.743700	2.573240	0.025732
72.603400	2.573160	0.025732
72.460600	2.573080	0.025731
72.319200	2.572990	0.025730
72.179800	2.572860	0.025729
72.039900	2.572720	0.025727
71.900500	2.572590	0.025726
71.759500	2.572440	0.025724
71.614700	2.572300	0.025723
71.468300	2.572150	0.025722
71.318900	2.572040	0.025720
71.166000	2.571940	0.025719
71.013700	2.571810	0.025718
70.860000	2.571750	0.025718
70.707700	2.571730	0.025717
70.554600	2.571750	0.025718
70.403200	2.571800	0.025718
70.250000	2.571870	0.025719
70.097400	2.571970	0.025720
69.948400	2.571810	0.025718
69.803000	2.571940	0.025719
69.660400	2.572070	0.025721
69.519500	2.572230	0.025722
69.378900	2.572430	0.025724
69.236700	2.572650	0.025727
69.095600	2.572910	0.025729
68.954800	2.573180	0.025732
68.814300	2.573450	0.025735
68.672900	2.573710	0.025737
68.530500	2.573680	0.025737
68.389200	2.573870	0.025739
68.246500	2.574030	0.025740
68.105300	2.574170	0.025742
67.963900	2.574270	0.025743
67.824200	2.574310	0.025743
67.685800	2.574300	0.025743
67.551800	2.574270	0.025743
67.415700	2.574310	0.025743
67.279500	2.574260	0.025743
67.144700	2.574220	0.025742
67.006100	2.574180	0.025742
66.867300	2.574160	0.025742
66.731400	2.574140	0.025741
66.595200	2.574150	0.025742
66.460400	2.574160	0.025742
66.327000	2.574220	0.025742
66.190600	2.574270	0.025743
66.052900	2.574470	0.025745
65.913200	2.574530	0.025745
65.773200	2.574570	0.025746
65.632900	2.574570	0.025746
65.492000	2.574530	0.025745
65.350500	2.574450	0.025745
65.207100	2.574310	0.025743
65.062400	2.574100	0.025741
64.913000	2.573880	0.025739
64.763200	2.573640	0.025736
64.612300	2.573260	0.025733
64.463600	2.573010	0.025730
64.315000	2.572820	0.025728
64.166300	2.572670	0.025727
64.018700	2.572580	0.025726
63.870700	2.572550	0.025726
63.722100	2.572570	0.025726
63.572600	2.572670	0.025727
63.421300	2.572810	0.025728
63.270300	2.572920	0.025729
63.117700	2.573070	0.025731
62.963100	2.573230	0.025732
62.808500	2.573380	0.025734
62.653200	2.573500	0.025735
62.498400	2.573580	0.025736
62.344900	2.573640	0.025736
62.189400	2.573650	0.025737
62.034500	2.573620	0.025736
61.880100	2.573520	0.025735
61.727800	2.573400	0.025734
61.577400	2.573140	0.025731
61.427400	2.572960	0.025730
61.276900	2.572770	0.025728
61.127400	2.572610	0.025726
60.977800	2.572470	0.025725
60.829900	2.572340	0.025723
60.683100	2.572480	0.025725
60.537400	2.572420	0.025724
60.393300	2.572360	0.025724
60.251100	2.572320	0.025723
60.108400	2.572290	0.025723
59.967400	2.572320	0.025723
59.826700	2.572290	0.025723
59.689800	2.572280	0.025723
59.552600	2.572230	0.025722
59.416400	2.572170	0.025722
59.281700	2.572120	0.025721
59.146100	2.572040	0.025720
59.010300	2.571960	0.025720
58.874700	2.571870	0.025719
58.738100	2.571770	0.025718
58.600400	2.571840	0.025718
58.463300	2.571760	0.025718
58.325800	2.571700	0.025717
58.187400	2.571690	0.025717
58.049300	2.571710	0.025717
57.912400	2.571820	0.025718
57.778000	2.571990	0.025720
57.643500	2.572230	0.025722
57.509400	2.572540	0.025725
57.372900	2.572920	0.025729
57.237400	2.573330	0.025733
57.099600	2.573770	0.025738
56.963900	2.574190	0.025742
56.826600	2.574610	0.025746
56.690700	2.575000	0.025750
56.556900	2.575380	0.025754
56.421400	2.575700	0.025757
56.287500	2.576020	0.025760
56.154100	2.576320	0.025763
56.017000	2.576610	0.025766
55.881100	2.576890	0.025769
55.744900	2.577440	0.025774
55.608500	2.577750	0.025778
55.474800	2.578060	0.025781
55.341200	2.578300	0.025783
55.208100	2.578450	0.025785
55.075200	2.578490	0.025785
54.943000	2.578410	0.025784
54.811100	2.578200	0.025782
54.680300	2.577870	0.025779
54.552000	2.577440	0.025774
54.425100	2.576970	0.025770
54.299400	2.576510	0.025765
54.174500	2.576090	0.025761
54.052100	2.575670	0.025757
53.930700	2.575300	0.025753
53.810800	2.574930	0.025749
53.694100	2.574580	0.025746
53.578800	2.574270	0.025743
53.465900	2.574040	0.025740
53.354000	2.574060	0.025741
53.241600	2.574300	0.025743
53.130400	2.574690	0.025747
53.019100	2.575120	0.025751
52.910100	2.575560	0.025756
52.801900	2.575970	0.025760
52.691800	2.576370	0.025764
52.584900	2.576750	0.025768
52.475900	2.577130	0.025771
52.368800	2.577480	0.025775
52.263900	2.577710	0.025777
52.161500	2.577950	0.025780
52.062200	2.578150	0.025782
51.962600	2.578290	0.025783
51.861200	2.578370	0.025784
51.759700	2.578420	0.025784
51.659800	2.578410	0.025784
51.560700	2.578310	0.025783
51.461600	2.578110	0.025781
51.362800	2.578020	0.025780
51.263700	2.577800	0.025778
51.166500	2.577530	0.025775
51.070400	2.577270	0.025773
50.974700	2.576990	0.025770
50.880100	2.576670	0.025767
50.784600	2.576340	0.025763
50.690200	2.575980	0.025760
50.595200	2.575710	0.025757
50.501100	2.575570	0.025756
50.407500	2.575470	0.025755
50.313500	2.575670	0.025757
50.220200	2.576010	0.025760
50.127200	2.576380	0.025764
50.034400	2.576780	0.025768
49.942300	2.577210	0.025772
49.852500	2.577600	0.025776
49.764100	2.578020	0.025780
49.676500	2.578430	0.025784
49.589200	2.578850	0.025789
49.503100	2.579360	0.025794
49.416000	2.579770	0.025798
49.327900	2.580160	0.025802
49.239400	2.580510	0.025805
49.152300	2.580830	0.025808
49.068200	2.581060	0.025811
48.987400	2.581210	0.025812
48.910200	2.581280	0.025813
48.830500	2.581260	0.025813
48.750500	2.581130	0.025811
48.671500	2.580920	0.025809
48.591000	2.580680	0.025807
48.510500	2.580420	0.025804
48.430400	2.580180	0.025802
48.349300	2.579950	0.025800
48.268800	2.579740	0.025797
48.185800	2.579550	0.025796
48.100500	2.579280	0.025793
48.015200	2.579150	0.025792
47.927900	2.579040	0.025790
47.840300	2.579000	0.025790
47.752700	2.578870	0.025789
47.668900	2.579030	0.025790
47.587400	2.579290	0.025793
47.508000	2.579580	0.025796
47.430000	2.579880	0.025799
47.352400	2.580120	0.025801
47.274400	2.580280	0.025803
47.199500	2.580360	0.025804
47.126300	2.580350	0.025804
47.053700	2.580270	0.025803
46.980700	2.580140	0.025801
46.907400	2.580100	0.025801
46.832900	2.579910	0.025799
46.758000	2.579710	0.025797
46.683400	2.579500	0.025795
46.608400	2.579240	0.025792
46.536700	2.578950	0.025790
46.465800	2.578600	0.025786
46.397900	2.578180	0.025782
46.330200	2.577700	0.025777
46.266200	2.577160	0.025772
46.204000	2.576580	0.025766
46.144500	2.575990	0.025760
46.087900	2.575380	0.025754
46.032000	2.574860	0.025749
45.977500	2.574440	0.025744
45.923300	2.574130	0.025741
45.869000	2.573950	0.025740
45.814600	2.573920	0.025739
45.762100	2.574060	0.025741
45.711700	2.574330	0.025743
45.662500	2.574690	0.025747
45.615000	2.575110	0.025751
45.568800	2.575590	0.025756
45.522100	2.576140	0.025761
45.474800	2.576730	0.025767
45.424700	2.577380	0.025774
45.373400	2.578090	0.025781
45.320300	2.578790	0.025788
45.265000	2.579330	0.025793
45.208600	2.579640	0.025796
45.152800	2.579700	0.025797
45.097100	2.579590	0.025796
45.039600	2.579400	0.025794
44.980900	2.579200	0.025792
44.923500	2.578970	0.025790
44.865900	2.578730	0.025787
44.810500	2.578480	0.025785
44.756300	2.578210	0.025782
44.703100	2.577950	0.025780
44.651400	2.577750	0.025778
44.599700	2.577530	0.025775
44.550600	2.577330	0.025773
44.505400	2.577180	0.025772
44.458800	2.577030	0.025770
44.415300	2.576940	0.025769
44.374600	2.576930	0.025769
44.334600	2.576960	0.025770
44.293600	2.577090	0.025771
44.252200	2.577260	0.025773
44.208000	2.577440	0.025774
44.161600	2.577690	0.025777
44.115400	2.577940	0.025779
44.069400	2.578200	0.025782
44.022300	2.578450	0.025785
43.976300	2.578700	0.025787
43.932800	2.578920	0.025789
43.891500	2.579080	0.025791
43.849700	2.579070	0.025791
43.807300	2.579030	0.025790
43.766100	2.578680	0.025787
43.728800	2.578210	0.025782
43.693000	2.577720	0.025777
43.656400	2.577220	0.025772
43.620100	2.576710	0.025767
43.586500	2.576250	0.025763
43.550900	2.575790	0.025758
43.514500	2.575360	0.025754
43.477200	2.574950	0.025750
43.439200	2.574550	0.025746
43.400900	2.574190	0.025742
43.364800	2.573900	0.025739
43.328200	2.573660	0.025737
43.292900	2.573480	0.025735
43.258900	2.573480	0.025735
43.226700	2.573630	0.025736
43.196700	2.573990	0.025740
43.168200	2.574450	0.025745
43.139400	2.575030	0.025750
43.109600	2.575700	0.025757
43.080200	2.576390	0.025764
43.049200	2.577080	0.025771
43.017900	2.577720	0.025777
42.984300	2.578330	0.025783
42.950500	2.578900	0.025789
42.915900	2.579430	0.025794
42.882100	2.580000	0.025800
42.843800	2.580410	0.025804
42.802600	2.580750	0.025808
42.759800	2.580980	0.025810
42.716300	2.581070	0.025811
42.671500	2.580980	0.025810
42.627100	2.580720	0.025807
42.585000	2.580320	0.025803
42.544900	2.579820	0.025798
42.503400	2.579270	0.025793
42.461700	2.578690	0.025787
42.419400	2.578070	0.025781
42.377700	2.577450	0.025775
42.338600	2.576860	0.025769
42.302600	2.576310	0.025763
42.268300	2.575610	0.025756
42.235400	2.575150	0.025752
42.205000	2.574750	0.025748
42.176800	2.574520	0.025745
42.151600	2.574340	0.025743
42.127300	2.574270	0.025743
42.106600	2.574290	0.025743
42.089900	2.574400	0.025744
42.073900	2.574600	0.025746
42.058900	2.574860	0.025749
42.045600	2.575180	0.025752
42.030400	2.575520	0.025755
42.015800	2.575860	0.025759
41.998800	2.576160	0.025762
41.980200	2.576440	0.025764
41.962000	2.576690	0.025767
41.943300	2.576930	0.025769
41.923900	2.577130	0.025771
41.907600	2.577280	0.025773
41.889800	2.577410	0.025774
41.872000	2.577490	0.025775
41.855200	2.577490	0.025775
41.839700	2.577420	0.025774
41.824900	2.577350	0.025774
41.811000	2.577120	0.025771
41.798800	2.576840	0.025768
41.786400	2.576550	0.025766
41.775300	2.576240	0.025762
41.764700	2.575950	0.025760
41.752800	2.575720	0.025757
41.738800	2.575550	0.025756
41.722500	2.575400	0.025754
41.707600	2.575280	0.025753
41.692900	2.575210	0.025752
41.678900	2.575210	0.025752
41.662500	2.575230	0.025752
41.644000	2.575290	0.025753
41.627200	2.575380	0.025754
41.609900	2.575480	0.025755
41.590000	2.575620	0.025756
41.570600	2.575780	0.025758
41.551300	2.575950	0.025760
41.532400	2.576160	0.025762
41.511900	2.576430	0.025764
41.489100	2.576670	0.025767
41.468200	2.576910	0.025769
41.443200	2.577190	0.025772
41.417200	2.577160	0.025772
41.389300	2.577350	0.025774
41.360400	2.577550	0.025776
41.330300	2.577680	0.025777
41.299600	2.577800	0.025778
41.270400	2.577950	0.025780
41.241800	2.578090	0.025781
41.214000	2.578200	0.025782
41.186300	2.578330	0.025783
41.160500	2.578480	0.025785
41.136800	2.578630	0.025786
41.114400	2.578810	0.025788
41.092500	2.579000	0.025790
41.071300	2.579210	0.025792
41.050500	2.579420	0.025794
41.029500	2.579680	0.025797
41.008000	2.579910	0.025799
40.986700	2.580120	0.025801
40.965700	2.580290	0.025803
40.945600	2.580410	0.025804
40.925500	2.580450	0.025805
40.904400	2.580430	0.025804
40.884300	2.580310	0.025803
40.862500	2.580110	0.025801
40.839900	2.579790	0.025798
40.817000	2.579510	0.025795
40.792900	2.579100	0.025791
40.767800	2.578610	0.025786
40.743600	2.578030	0.025780
40.719600	2.577410	0.025774
40.696000	2.576790	0.025768
40.672600	2.576160	0.025762
40.645200	2.575560	0.025756
40.615600	2.574940	0.025749
40.582900	2.574370	0.025744
40.549200	2.573830	0.025738
40.515500	2.573380	0.025734
40.481000	2.573080	0.025731
40.445400	2.572980	0.025730
40.409800	2.573050	0.025731
40.372200	2.573270	0.025733
40.335500	2.573560	0.025736
40.298400	2.573890	0.025739
40.262000	2.574270	0.025743
40.226100	2.574690	0.025747
40.189400	2.575150	0.025752
40.152500	2.575650	0.025757
40.117800	2.576200	0.025762
40.084300	2.576760	0.025768
40.052300	2.577330	0.025773
40.022900	2.577840	0.025778
39.994600	2.578300	0.025783
39.967700	2.578680	0.025787
39.942100	2.578980	0.025790
39.918600	2.579180	0.025792
39.895700	2.579230	0.025792
39.873700	2.579090	0.025791
39.851600	2.578860	0.025789
39.831100	2.578560	0.025786
39.811400	2.578220	0.025782
39.792100	2.577880	0.025779
39.775500	2.577540	0.025775
39.758500	2.577200	0.025772
39.743800	2.576880	0.025769
39.730700	2.576540	0.025765
39.716500	2.576240	0.025762
39.703500	2.575960	0.025760
39.692100	2.575770	0.025758
39.680100	2.575750	0.025758
39.668600	2.575880	0.025759
39.657400	2.576160	0.025762
39.648200	2.576510	0.025765
39.641100	2.576880	0.025769
39.632000	2.577260	0.025773
39.627500	2.577640	0.025776
39.622600	2.578180	0.025782
39.618700	2.578500	0.025785
39.613600	2.578890	0.025789
39.609200	2.579270	0.025793
39.604600	2.579610	0.025796
39.600000	2.579830	0.025798
39.595900	2.579990	0.025800
39.590500	2.580050	0.025801
39.584400	2.580010	0.025800
39.574300	2.579840	0.025798
39.559900	2.579570	0.025796
39.542200	2.579190	0.025792
39.522300	2.578710	0.025787
39.501700	2.578180	0.025782
39.482400	2.577640	0.025776
39.465300	2.577100	0.025771
39.448800	2.576560	0.025766
39.432700	2.576040	0.025760
39.415700	2.575550	0.025756
39.397600	2.575060	0.025751
39.378000	2.574590	0.025746
39.357800	2.574160	0.025742
39.338700	2.573840	0.025738
39.322000	2.573690	0.025737
39.305700	2.573700	0.025737
39.289300	2.574130	0.025741
39.273100	2.574420	0.025744
39.254300	2.574790	0.025748
39.233500	2.575120	0.025751
39.213600	2.575440	0.025754
39.190700	2.575700	0.025757
39.167600	2.575960	0.025760
39.147000	2.576250	0.025763
39.127800	2.576510	0.025765
39.107600	2.576710	0.025767
39.084600	2.576870	0.025769
39.060000	2.576950	0.025770
39.033700	2.576950	0.025770
39.007900	2.576840	0.025768
38.983000	2.576630	0.025766
38.961100	2.576290	0.025763
38.939900	2.575910	0.025759
38.920000	2.575510	0.025755
38.899000	2.575130	0.025751
38.875700	2.574800	0.025748
38.853100	2.574550	0.025746
38.830300	2.574390	0.025744
38.807000	2.574320	0.025743
38.785400	2.574300	0.025743
38.763200	2.574380	0.025744
38.739700	2.574450	0.025745
38.715500	2.574620	0.025746
38.689800	2.574930	0.025749
38.662700	2.575350	0.025754
38.634400	2.575850	0.025759
38.605500	2.576420	0.025764
38.576500	2.576990	0.025770
38.547400	2.577570	0.025776
38.517000	2.578210	0.025782
38.484700	2.578810	0.025788
38.450400	2.579390	0.025794
38.413200	2.579880	0.025799
38.376700	2.580200	0.025802
38.340000	2.580310	0.025803
38.304900	2.580230	0.025802
38.271600	2.579970	0.025800
38.240200	2.579590	0.025796
38.209200	2.579140	0.025791
38.178900	2.578610	0.025786
38.149100	2.578010	0.025780
38.119300	2.577380	0.025774
38.088800	2.576740	0.025767
38.057700	2.576110	0.025761
38.027000	2.575490	0.025755
37.996900	2.574920	0.025749
37.969400	2.574440	0.025744
37.943600	2.573980	0.025740
37.918900	2.573600	0.025736
37.893700	2.573350	0.025734
37.867000	2.573160	0.025732
37.839500	2.573110	0.025731
37.810200	2.573290	0.025733
37.780700	2.573690	0.025737
37.748900	2.574280	0.025743
37.721400	2.574970	0.025750
37.697800	2.575640	0.025756
37.675600	2.576320	0.025763
37.654700	2.577000	0.025770
37.634400	2.577650	0.025777
37.613600	2.578300	0.025783
37.592900	2.578900	0.025789
37.573600	2.579460	0.025795
37.554300	2.579880	0.025799
37.534000	2.580110	0.025801
37.513100	2.580110	0.025801
37.491600	2.579900	0.025799
37.470800	2.579530	0.025795
37.449800	2.579060	0.025791
37.429400	2.578530	0.025785
37.409900	2.577940	0.025779
37.391700	2.577130	0.025771
37.372000	2.576460	0.025765
37.356000	2.575820	0.025758
37.343500	2.575190	0.025752
37.332000	2.574570	0.025746
37.324300	2.574040	0.025740
37.318100	2.573540	0.025735
37.309000	2.573130	0.025731
37.296600	2.572900	0.025729
37.282900	2.572780	0.025728
37.269400	2.572910	0.025729
37.256000	2.573270	0.025733
37.241900	2.573790	0.025738
37.227200	2.574420	0.025744
37.211500	2.575070	0.025751
37.194000	2.575730	0.025757
37.179500	2.576390	0.025764
37.164800	2.577030	0.025770
37.150800	2.577640	0.025776
37.138400	2.578230	0.025782
37.123300	2.578790	0.025788
37.107900	2.579280	0.025793
37.093000	2.579650	0.025797
37.077600	2.579820	0.025798
37.062500	2.579770	0.025798
37.047500	2.579510	0.025795
37.032800	2.579100	0.025791
37.019300	2.578530	0.025785
37.006800	2.577940	0.025779
36.995200	2.577300	0.025773
36.983300	2.576650	0.025767
36.971800	2.576010	0.025760
36.965100	2.575390	0.025754
36.956200	2.574790	0.025748
36.952500	2.574250	0.025743
36.951600	2.573760	0.025738
36.953300	2.573320	0.025733
36.956700	2.573030	0.025730
36.960600	2.572870	0.025729
36.962700	2.572840	0.025728
36.964400	2.573060	0.025731
36.964000	2.573480	0.025735
36.962600	2.574040	0.025740
36.958900	2.574670	0.025747
36.952200	2.575310	0.025753
36.943700	2.575940	0.025759
36.934000	2.576590	0.025766
36.927400	2.577190	0.025772
36.921200	2.577780	0.025778
36.913800	2.578340	0.025783
36.904200	2.578820	0.025788
36.894000	2.579200	0.025792
36.883600	2.579390	0.025794
36.873500	2.579390	0.025794
36.865900	2.579270	0.025793
36.860800	2.578980	0.025790
36.859200	2.578600	0.025786
36.860100	2.578150	0.025782
36.865600	2.577600	0.025776
36.870200	2.577010	0.025770
36.874200	2.576390	0.025764
36.881400	2.575790	0.025758
36.889500	2.575120	0.025751
36.898600	2.574640	0.025746
36.908000	2.574210	0.025742
36.920600	2.573880	0.025739
36.932500	2.573660	0.025737
36.943700	2.573490	0.025735
36.958300	2.573420	0.025734
36.972700	2.573460	0.025735
36.986800	2.573570	0.025736
36.996700	2.573770	0.025738
37.005100	2.574060	0.025741
37.010900	2.574470	0.025745
37.017700	2.574960	0.025750
37.022100	2.575510	0.025755
37.029000	2.576070	0.025761
37.034000	2.576650	0.025767
37.036900	2.577220	0.025772
37.037400	2.577740	0.025777
37.037300	2.578200	0.025782
37.035800	2.578500	0.025785
37.036700	2.578620	0.025786
37.039100	2.578580	0.025786
37.043100	2.578430	0.025784
37.046500	2.578250	0.025783
37.051300	2.578020	0.025780
37.055000	2.577730	0.025777
37.059000	2.577420	0.025774
37.061400	2.577120	0.025771
37.065000	2.576740	0.025767
37.067800	2.576350	0.025764
37.070100	2.575960	0.025760
37.073700	2.575600	0.025756
37.078100	2.575270	0.025753
37.084500	2.574990	0.025750
37.090000	2.574790	0.025748
37.095200	2.574670	0.025747
37.099800	2.574670	0.025747
37.103000	2.574700	0.025747
37.108700	2.574790	0.025748
37.113000	2.574930	0.025749
37.118600	2.575060	0.025751
37.122500	2.575230	0.025752
37.124700	2.575400	0.025754
37.127500	2.575590	0.025756
37.129100	2.575840	0.025758
37.129300	2.576080	0.025761
37.132500	2.576240	0.025762
37.135000	2.576380	0.025764
37.136700	2.576380	0.025764
37.139000	2.576250	0.025763
37.142400	2.576030	0.025760
37.146900	2.575760	0.025758
37.152500	2.575470	0.025755
37.157800	2.575240	0.025752
37.165100	2.574990	0.025750
37.172200	2.574770	0.025748
37.182500	2.574620	0.025746
37.194200	2.574450	0.025745
37.208200	2.574320	0.025743
37.223600	2.574230	0.025742
37.235300	2.574180	0.025742
37.244300	2.574170	0.025742
37.254600	2.574240	0.025742
37.265900	2.574360	0.025744
37.277100	2.574560	0.025746
37.288700	2.574820	0.025748
37.299000	2.575120	0.025751
37.305900	2.575480	0.025755
37.308200	2.575830	0.025758
37.306800	2.576190	0.025762
37.303400	2.576520	0.025765
37.299000	2.576840	0.025768
37.295400	2.577140	0.025771
37.293000	2.577420	0.025774
37.288800	2.577700	0.025777
37.283900	2.577910	0.025779
37.281300	2.578060	0.025781
37.276800	2.578170	0.025782
37.271400	2.578110	0.025781
37.266200	2.577910	0.025779
37.262400	2.577600	0.025776
37.257400	2.577240	0.025772
37.250700	2.576840	0.025768
37.244000	2.576440	0.025764
37.240000	2.576000	0.025760
37.235200	2.575580	0.025756
37.229500	2.575180	0.025752
37.218800	2.574790	0.025748
37.208500	2.574430	0.025744
37.194400	2.574110	0.025741
37.178900	2.573840	0.025738
37.163800	2.573640	0.025736
37.148200	2.573510	0.025735
37.132900	2.573460	0.025735
37.118700	2.573480	0.025735
37.106100	2.573590	0.025736
37.097500	2.573740	0.025737
37.092600	2.573940	0.025739
37.091300	2.574180	0.025742
37.089900	2.574440	0.025744
37.093700	2.574780	0.025748
37.098400	2.574970	0.025750
37.105400	2.575160	0.025752
37.113200	2.575310	0.025753
37.121100	2.575420	0.025754
37.129100	2.575560	0.025756
37.137400	2.575660	0.025757
37.144000	2.575730	0.025757
37.149900	2.575760	0.025758
37.155500	2.575740	0.025757
37.161000	2.575630	0.025756
37.166600	2.575420	0.025754
37.174100	2.575140	0.025751
37.178200	2.574800	0.025748
37.182200	2.574480	0.025745
37.184500	2.574160	0.025742
37.187100	2.573870	0.025739
37.193600	2.573610	0.025736
37.201400	2.573400	0.025734
37.211300	2.573210	0.025732
37.219900	2.573080	0.025731
37.228700	2.572980	0.025730
37.238100	2.572930	0.025729
37.248500	2.572920	0.025729
37.259200	2.572960	0.025730
37.267700	2.573040	0.025730
37.275000	2.573150	0.025732
37.281100	2.573270	0.025733
37.287000	2.573470	0.025735
37.290400	2.573710	0.025737
37.292800	2.573990	0.025740
37.292400	2.574280	0.025743
37.292700	2.574590	0.025746
37.294000	2.574910	0.025749
37.298600	2.575220	0.025752
37.308400	2.575520	0.025755
37.323500	2.575760	0.025758
37.340100	2.576020	0.025760
37.359400	2.576230	0.025762
37.381200	2.576410	0.025764
37.404100	2.576550	0.025766
37.428500	2.576650	0.025767
37.454900	2.576710	0.025767
37.485000	2.576730	0.025767
37.518000	2.576690	0.025767
37.553400	2.576630	0.025766
37.590900	2.576530	0.025765
37.629300	2.576420	0.025764
37.670100	2.576280	0.025763
37.713300	2.576140	0.025761
37.758900	2.575990	0.025760
37.803600	2.575860	0.025759
37.852600	2.575730	0.025757
37.902900	2.575570	0.025756
37.954600	2.575450	0.025755
38.007500	2.575300	0.025753
38.061400	2.575150	0.025752
38.117300	2.575090	0.025751
38.175600	2.575060	0.025751
38.235400	2.575070	0.025751
38.298200	2.575100	0.025751
38.363700	2.575170	0.025752
38.434300	2.575260	0.025753
38.507300	2.575360	0.025754
38.584600	2.575460	0.025755
38.664800	2.575560	0.025756
38.744400	2.575670	0.025757
38.828200	2.575750	0.025758
38.913100	2.575830	0.025758
38.998700	2.575900	0.025759
39.087000	2.575950	0.025760
39.171000	2.575990	0.025760
39.253500	2.576010	0.025760
39.335700	2.575980	0.025760
39.417800	2.575980	0.025760
39.497700	2.575960	0.025760
39.578500	2.575940	0.025759
39.659400	2.575900	0.025759
39.741500	2.575910	0.025759
39.825200	2.575940	0.025759
39.909100	2.575990	0.025760
39.993400	2.576090	0.025761
40.080600	2.576200	0.025762
40.170000	2.576300	0.025763
40.263400	2.576420	0.025764
40.359000	2.576550	0.025766
40.455100	2.576670	0.025767
40.550400	2.576790	0.025768
40.646900	2.576880	0.025769
40.745300	2.576950	0.025770
40.845500	2.576990	0.025770
40.948400	2.576970	0.025770
41.051000	2.576930	0.025769
41.152600	2.576850	0.025769
41.255200	2.576740	0.025767
41.358700	2.576590	0.025766
41.462900	2.576430	0.025764
41.565600	2.576250	0.025763
41.667200	2.576040	0.025760
41.765800	2.575770	0.025758
41.863800	2.575520	0.025755
41.962100	2.575270	0.025753
42.061700	2.575010	0.025750
42.162600	2.574810	0.025748
42.263800	2.574620	0.025746
42.367500	2.574420	0.025744
42.475000	2.574250	0.025743
42.584400	2.574170	0.025742
42.691800	2.574230	0.025742
42.797200	2.574400	0.025744
42.899700	2.574680	0.025747
42.999800	2.575040	0.025750
43.099000	2.575440	0.025754
43.197300	2.575830	0.025758
43.293200	2.576180	0.025762
43.390700	2.576480	0.025765
43.488100	2.576720	0.025767
43.583600	2.576900	0.025769
43.675000	2.577040	0.025770
43.764700	2.577130	0.025771
43.852100	2.577170	0.025772
43.939900	2.577170	0.025772
44.026400	2.577120	0.025771
44.112100	2.577020	0.025770
44.198000	2.576890	0.025769
44.284500	2.576730	0.025767
44.370900	2.576550	0.025766
44.456900	2.576340	0.025763
44.542500	2.576110	0.025761
44.628000	2.575850	0.025759
44.712300	2.575620	0.025756
44.796800	2.575410	0.025754
44.882200	2.575280	0.025753
44.969100	2.575180	0.025752
45.058500	2.575120	0.025751
45.149600	2.575090	0.025751
45.241700	2.575100	0.025751
45.336200	2.575110	0.025751
45.432300	2.575160	0.025752
45.529800	2.575210	0.025752
45.629600	2.575280	0.025753
45.733700	2.575350	0.025754
45.836200	2.575420	0.025754
45.938700	2.575490	0.025755
46.040600	2.575550	0.025756
46.138900	2.575600	0.025756
46.238600	2.575650	0.025757
46.338500	2.575680	0.025757
46.439600	2.575700	0.025757
46.541400	2.575690	0.025757
46.645900	2.575660	0.025757
46.749700	2.575580	0.025756
46.853900	2.575470	0.025755
46.956400	2.575310	0.025753
47.056500	2.575100	0.025751
47.157900	2.574890	0.025749
47.259100	2.574610	0.025746
47.360800	2.574270	0.025743
47.463300	2.573890	0.025739
47.565900	2.573390	0.025734
47.668700	2.573100	0.025731
47.772000	2.572850	0.025729
47.876900	2.572670	0.025727
47.983700	2.572560	0.025726
48.090800	2.572540	0.025725
48.197100	2.572590	0.025726
48.301700	2.572670	0.025727
48.403100	2.572780	0.025728
48.505000	2.572900	0.025729
48.606000	2.573030	0.025730
48.706800	2.573140	0.025731
48.808500	2.573250	0.025733
48.908800	2.573370	0.025734
49.007200	2.573550	0.025736
49.107300	2.573720	0.025737
49.208300	2.573900	0.025739
49.312700	2.574090	0.025741
49.417500	2.574320	0.025743
49.526500	2.574500	0.025745
49.638200	2.574680	0.025747
49.750600	2.574810	0.025748
49.862300	2.574880	0.025749
49.973500	2.574930	0.025749
50.085600	2.574960	0.025750
50.196600	2.574950	0.025750
50.307000	2.574900	0.025749
50.413700	2.574820	0.025748
50.516000	2.574690	0.025747
50.616900	2.574530	0.025745
50.719400	2.574330	0.025743
50.821800	2.574100	0.025741
50.924500	2.573860	0.025739
51.030300	2.573540	0.025735
51.141200	2.573300	0.025733
51.256600	2.573100	0.025731
51.373800	2.572920	0.025729
51.488000	2.572770	0.025728
51.602600	2.572670	0.025727
51.716400	2.572620	0.025726
51.831300	2.572670	0.025727
51.947100	2.572760	0.025728
52.065300	2.572930	0.025729
52.185800	2.573200	0.025732
52.306900	2.573540	0.025735
52.430200	2.573980	0.025740
52.554200	2.574480	0.025745
52.678400	2.575010	0.025750
52.802800	2.575470	0.025755
52.923800	2.575780	0.025758
53.042700	2.575950	0.025760
53.160300	2.575980	0.025760
53.280400	2.575900	0.025759
53.397700	2.575740	0.025757
53.513000	2.575540	0.025755
53.626600	2.575320	0.025753
53.740100	2.575110	0.025751
53.851200	2.574900	0.025749
53.961700	2.574690	0.025747
54.073000	2.574490	0.025745
54.185700	2.574290	0.025743
54.302100	2.574090	0.025741
54.421200	2.573890	0.025739
54.539100	2.573700	0.025737
54.654500	2.573510	0.025735
54.769300	2.573360	0.025734
54.882900	2.573200	0.025732
54.993800	2.573030	0.025730
55.104100	2.572920	0.025729
55.213200	2.572840	0.025728
55.320800	2.572750	0.025728
55.426000	2.572650	0.025727
55.530700	2.572530	0.025725
55.635600	2.572350	0.025724
55.738200	2.572170	0.025722
55.835600	2.571990	0.025720
55.929900	2.571850	0.025719
56.023800	2.571750	0.025718
56.117300	2.571700	0.025717
56.210200	2.571700	0.025717
56.303300	2.571740	0.025717
56.393700	2.571840	0.025718
56.483200	2.571970	0.025720
56.574300	2.572140	0.025721
56.665800	2.572350	0.025724
56.756900	2.572580	0.025726
56.847800	2.572820	0.025728
56.940500	2.573070	0.025731
57.037700	2.573320	0.025733
57.139700	2.573590	0.025736
57.245100	2.573860	0.025739
57.351800	2.574150	0.025742
57.457700	2.574470	0.025745
57.566600	2.574790	0.025748
57.675200	2.575140	0.025751
57.783900	2.575510	0.025755
57.895600	2.575890	0.025759
58.008200	2.576330	0.025763
58.121200	2.576720	0.025767
58.235500	2.577110	0.025771
58.351900	2.577570	0.025776
58.466300	2.577910	0.025779
58.582400	2.578110	0.025781
58.702300	2.578200	0.025782
58.825700	2.578190	0.025782
58.950000	2.578030	0.025780
59.074200	2.577750	0.025778
59.200100	2.577360	0.025774
59.328100	2.576890	0.025769
59.457900	2.576350	0.025764
59.584700	2.575740	0.025757
59.709100	2.575130	0.025751
59.834100	2.574500	0.025745
59.958100	2.573880	0.025739
60.081100	2.573270	0.025733
60.201800	2.572660	0.025727
60.319400	2.572030	0.025720
60.433600	2.571420	0.025714
60.543400	2.570830	0.025708
60.651300	2.570350	0.025704
60.759700	2.570060	0.025701
60.867400	2.570010	0.025700
60.976000	2.570150	0.025702
61.085600	2.570390	0.025704
61.199200	2.570670	0.025707
61.314800	2.570980	0.025710
61.430300	2.571300	0.025713
61.542700	2.571640	0.025716
61.654500	2.572010	0.025720
61.768200	2.572360	0.025724
61.881500	2.572780	0.025728
61.993700	2.573230	0.025732
62.108600	2.573710	0.025737
62.224700	2.574230	0.025742
62.341600	2.574710	0.025747
62.459600	2.575160	0.025752
62.576300	2.575580	0.025756
62.690100	2.575980	0.025760
62.803600	2.576320	0.025763
62.916700	2.576590	0.025766
63.031800	2.576780	0.025768
63.147600	2.576890	0.025769
63.267100	2.576890	0.025769
63.388000	2.576760	0.025768
63.508200	2.576470	0.025765
63.627900	2.576060	0.025761
63.749300	2.575560	0.025756
63.870300	2.574990	0.025750
63.991200	2.574380	0.025744
64.115900	2.573790	0.025738
64.246500	2.573200	0.025732
64.380600	2.572620	0.025726
64.510400	2.572070	0.025721
64.638500	2.571570	0.025716
64.766800	2.571200	0.025712
64.895400	2.571020	0.025710
65.027800	2.571020	0.025710
65.162800	2.571190	0.025712
65.299000	2.571460	0.025715
65.436600	2.571760	0.025718
65.575700	2.572060	0.025721
65.717500	2.572370	0.025724
65.857500	2.572710	0.025727
65.995900	2.573030	0.025730
66.133800	2.573390	0.025734
66.270500	2.573710	0.025737
66.408400	2.574040	0.025740
66.545700	2.574350	0.025744
66.679100	2.574640	0.025746
66.809900	2.574900	0.025749
66.942000	2.575140	0.025751
67.073300	2.575370	0.025754
67.205300	2.575560	0.025756
67.337600	2.575720	0.025757
67.470100	2.575840	0.025758
67.602700	2.575890	0.025759
67.738600	2.575880	0.025759
67.877900	2.575790	0.025758
68.017000	2.575640	0.025756
68.153900	2.575430	0.025754
68.288300	2.575190	0.025752
68.420100	2.574910	0.025749
68.548200	2.574600	0.025746
68.671400	2.574280	0.025743
68.791100	2.573950	0.025740
68.913400	2.573640	0.025736
69.038300	2.573360	0.025734
69.163700	2.573100	0.025731
69.289900	2.572860	0.025729
69.417600	2.572650	0.025727
69.546700	2.572370	0.025724
69.679400	2.572200	0.025722
69.812300	2.572070	0.025721
69.945800	2.571960	0.025720
70.079300	2.571900	0.025719
70.208800	2.571910	0.025719
70.340500	2.571930	0.025719
70.473400	2.571940	0.025719
70.607800	2.572010	0.025720
70.742500	2.572070	0.025721
70.879100	2.572130	0.025721
71.017600	2.572070	0.025721
71.155600	2.572050	0.025721
71.298700	2.572010	0.025720
71.441200	2.571980	0.025720
71.585300	2.571970	0.025720
71.731400	2.572010	0.025720
71.876200	2.572070	0.025721
72.020800	2.572190	0.025722
72.161800	2.572370	0.025724
72.301800	2.572600	0.025726
72.440100	2.572870	0.025729
72.581400	2.573150	0.025732
72.726300	2.573430	0.025734
72.873400	2.573700	0.025737
73.020500	2.573960	0.025740
73.166700	2.574240	0.025742
73.312400	2.574500	0.025745
73.458200	2.574720	0.025747
73.606200	2.574800	0.025748
73.755700	2.574700	0.025747
73.908000	2.574390	0.025744
74.063100	2.573930	0.025739
74.218600	2.573320	0.025733
74.372200	2.572770	0.025728
74.522600	2.572220	0.025722
74.669300	2.571710	0.025717
74.821100	2.571220	0.025712
74.975500	2.570750	0.025708
75.131600	2.570350	0.025704
75.288200	2.569910	0.025699
75.443400	2.569490	0.025695
75.600500	2.569090	0.025691
75.756200	2.568790	0.025688
75.909600	2.568550	0.025686
76.064100	2.568450	0.025685
76.212700	2.568490	0.025685
76.358900	2.568650	0.025687
76.503100	2.568920	0.025689
76.645700	2.569240	0.025692
76.786500	2.569590	0.025696
76.923000	2.569930	0.025699
77.054900	2.570280	0.025703
77.185200	2.570620	0.025706
77.314900	2.570970	0.025710
77.443900	2.571320	0.025713
77.571700	2.571660	0.025717
77.698200	2.572000	0.025720
77.824000	2.572330	0.025723
77.950300	2.572620	0.025726
78.076300	2.572900	0.025729
78.201800	2.573180	0.025732
78.324900	2.573450	0.025735
78.449800	2.573670	0.025737
78.575800	2.573740	0.025737
78.704500	2.573690	0.025737
78.834600	2.573500	0.025735
78.967900	2.573180	0.025732
79.103500	2.572800	0.025728
79.240200	2.572440	0.025724
79.375000	2.572100	0.025721
79.508300	2.571810	0.025718
79.641300	2.571540	0.025715
79.772100	2.571300	0.025713
79.899100	2.571080	0.025711
80.023700	2.570880	0.025709
80.146300	2.570710	0.025707
80.268500	2.570550	0.025706
80.391500	2.570400	0.025704
80.515300	2.570260	0.025703
80.643300	2.570130	0.025701
80.771800	2.570000	0.025700
80.899900	2.569890	0.025699
81.026900	2.569780	0.025698
81.152500	2.569680	0.025697
81.275900	2.569580	0.025696
81.396200	2.569470	0.025695
81.517800	2.569350	0.025694
81.634000	2.569220	0.025692
81.749600	2.569080	0.025691
81.864700	2.568950	0.025690
81.976300	2.568710	0.025687
82.085400	2.568720	0.025687
82.193800	2.568820	0.025688
82.303200	2.569010	0.025690
82.412600	2.569270	0.025693
82.524600	2.569600	0.025696
82.636500	2.569970	0.025700
82.748500	2.570370	0.025704
82.861400	2.570760	0.025708
82.975500	2.571270	0.025713
83.090800	2.571620	0.025716
83.205600	2.571910	0.025719
83.320500	2.572150	0.025722
83.434900	2.572300	0.025723
83.551100	2.572340	0.025723
83.665200	2.572310	0.025723
83.777500	2.572220	0.025722
83.888100	2.572090	0.025721
83.998900	2.571900	0.025719
84.110800	2.571680	0.025717
84.226100	2.571410	0.025714
84.339200	2.571100	0.025711
84.451300	2.570750	0.025708
84.558300	2.570380	0.025704
84.662000	2.569990	0.025700
84.766600	2.569590	0.025696
84.869200	2.569200	0.025692
84.973900	2.568850	0.025689
85.080500	2.568500	0.025685
85.186600	2.568160	0.025682
85.296700	2.567820	0.025678
85.408900	2.567560	0.025676
85.522400	2.567400	0.025674
85.636800	2.567440	0.025674
85.752100	2.567690	0.025677
85.870100	2.568100	0.025681
85.991900	2.568610	0.025686
86.117400	2.569150	0.025692
86.241800	2.569690	0.025697
86.366400	2.570180	0.025702
86.488100	2.570650	0.025707
86.606900	2.571070	0.025711
86.726700	2.571530	0.025715
86.845700	2.571880	0.025719
86.966000	2.572190	0.025722
87.087600	2.572470	0.025725
87.209900	2.572730	0.025727
87.331000	2.572950	0.025730
87.450900	2.573140	0.025731
87.569800	2.573310	0.025733
87.689800	2.573440	0.025734
87.811100	2.573550	0.025736
87.933700	2.573590	0.025736
88.057400	2.573530	0.025735
88.182000	2.573340	0.025733
88.307900	2.573040	0.025730
88.435900	2.572630	0.025726
88.567300	2.572160	0.025722
88.700800	2.571680	0.025717
88.834700	2.571230	0.025712
88.969200	2.570820	0.025708
89.104100	2.570460	0.025705
89.240200	2.570130	0.025701
89.375400	2.569880	0.025699
89.509400	2.569670	0.025697
89.641600	2.569520	0.025695
89.773900	2.569440	0.025694
89.908400	2.569390	0.025694
90.045200	2.569390	0.025694
90.182500	2.569400	0.025694
90.319900	2.569420	0.025694
90.455300	2.569440	0.025694
90.591800	2.569470	0.025695
90.727700	2.569520	0.025695
90.862700	2.569500	0.025695
90.999000	2.569460	0.025695
91.136300	2.569380	0.025694
91.271300	2.569280	0.025693
91.403000	2.569160	0.025692
91.533300	2.569030	0.025690
91.661600	2.568900	0.025689
91.788100	2.568760	0.025688
91.913800	2.568630	0.025686
92.041100	2.568500	0.025685
92.167300	2.568390	0.025684
92.294000	2.568290	0.025683
92.421100	2.568190	0.025682
92.548700	2.568110	0.025681
92.676200	2.568060	0.025681
92.800900	2.568020	0.025680
92.924000	2.568020	0.025680
93.046800	2.567950	0.025680
93.168900	2.568030	0.025680
93.290600	2.568150	0.025682
93.413400	2.568330	0.025683
93.535800	2.568570	0.025686
93.660600	2.568860	0.025689
93.784700	2.569210	0.025692
93.907800	2.569600	0.025696
94.032100	2.569980	0.025700
94.156800	2.570470	0.025705
94.282300	2.570710	0.025707
94.407900	2.570840	0.025708
94.532900	2.570850	0.025709
94.655200	2.570750	0.025708
94.775400	2.570560	0.025706
94.894400	2.570270	0.025703
95.013900	2.569940	0.025699
95.132800	2.569560	0.025696
95.251000	2.569130	0.025691
95.371000	2.568720	0.025687
95.490400	2.568310	0.025683
95.609100	2.567910	0.025679
95.726900	2.567540	0.025675
95.842900	2.567200	0.025672
95.960100	2.566880	0.025669
96.079100	2.566580	0.025666
96.196400	2.566320	0.025663
96.310100	2.566100	0.025661
96.420300	2.565930	0.025659
96.528900	2.565820	0.025658
96.638000	2.565780	0.025658
96.746900	2.565870	0.025659
96.855200	2.566000	0.025660
96.962400	2.566190	0.025662
97.067300	2.566450	0.025665
97.169500	2.566760	0.025668
97.271900	2.567120	0.025671
97.376600	2.567540	0.025675
97.484400	2.568010	0.025680
97.594400	2.568530	0.025685
97.706600	2.569010	0.025690
97.819600	2.569450	0.025695
97.933700	2.569730	0.025697
98.048400	2.569820	0.025698
98.162000	2.569790	0.025698
98.276000	2.569670	0.025697
98.391400	2.569570	0.025696
98.508800	2.569510	0.025695
98.625800	2.569480	0.025695
98.740900	2.569480	0.025695
98.856400	2.569500	0.025695
98.970500	2.569550	0.025696
99.083700	2.569580	0.025696
99.197000	2.569610	0.025696
99.311500	2.569620	0.025696
99.427700	2.569610	0.025696
99.541900	2.569630	0.025696
99.652700	2.569630	0.025696
99.762500	2.569630	0.025696
99.873800	2.569600	0.025696
99.988600	2.569550	0.025696
100.108000	2.569460	0.025695
100.233000	2.569360	0.025694
100.360000	2.569190	0.025692
100.488000	2.568990	0.025690
100.617000	2.568780	0.025688
100.744000	2.568540	0.025685
100.867000	2.568340	0.025683
100.990000	2.568150	0.025682
101.115000	2.567990	0.025680
101.245000	2.567830	0.025678
101.372000	2.567690	0.025677
101.501000	2.567550	0.025676
101.630000	2.567410	0.025674
101.761000	2.567270	0.025673
101.893000	2.567090	0.025671
102.026000	2.566910	0.025669
102.159000	2.566720	0.025667
102.292000	2.566530	0.025665
102.423000	2.566340	0.025663
102.553000	2.566160	0.025662
102.684000	2.565990	0.025660
102.819000	2.565860	0.025659
102.957000	2.565810	0.025658
103.094000	2.565850	0.025659
103.231000	2.565990	0.025660
103.368000	2.566230	0.025662
103.506000	2.566540	0.025665
103.646000	2.566910	0.025669
103.787000	2.567300	0.025673
103.928000	2.567690	0.025677
104.065000	2.568060	0.025681
104.204000	2.568380	0.025684
104.343000	2.568680	0.025687
104.484000	2.568940	0.025689
104.624000	2.569190	0.025692
104.761000	2.569400	0.025694
104.899000	2.569620	0.025696
105.036000	2.569820	0.025698
105.170000	2.569990	0.025700
105.307000	2.570220	0.025702
105.447000	2.570300	0.025703
105.588000	2.570330	0.025703
105.731000	2.570300	0.025703
105.873000	2.570210	0.025702
106.016000	2.570050	0.025701
106.159000	2.569830	0.025698
106.301000	2.569560	0.025696
106.445000	2.569250	0.025693
106.590000	2.568900	0.025689
106.736000	2.568520	0.025685
106.881000	2.568130	0.025681
107.023000	2.567720	0.025677
107.160000	2.567320	0.025673
107.295000	2.566920	0.025669
107.426000	2.566540	0.025665
107.555000	2.566190	0.025662
107.685000	2.565860	0.025659
107.814000	2.565580	0.025656
107.942000	2.565340	0.025653
108.066000	2.565170	0.025652
108.193000	2.565070	0.025651
108.322000	2.565030	0.025650
108.451000	2.565050	0.025651
108.583000	2.565140	0.025651
108.716000	2.565310	0.025653
108.849000	2.565520	0.025655
108.981000	2.565830	0.025658
109.111000	2.566140	0.025661
109.242000	2.566480	0.025665
109.375000	2.566830	0.025668
109.510000	2.567100	0.025671
109.648000	2.567380	0.025674
109.790000	2.567620	0.025676
109.930000	2.567810	0.025678
110.066000	2.567950	0.025680
110.197000	2.568010	0.025680
110.328000	2.568000	0.025680
110.456000	2.567920	0.025679
110.581000	2.567780	0.025678
110.703000	2.567570	0.025676
110.824000	2.567290	0.025673
110.945000	2.566960	0.025670
111.067000	2.566580	0.025666
111.186000	2.566140	0.025661
111.303000	2.565640	0.025656
111.420000	2.565080	0.025651
111.537000	2.564500	0.025645
111.655000	2.563890	0.025639
111.774000	2.563280	0.025633
111.892000	2.562680	0.025627
112.011000	2.562090	0.025621
112.130000	2.561590	0.025616
112.249000	2.561160	0.025612
112.369000	2.560840	0.025608
112.490000	2.560610	0.025606
112.609000	2.560470	0.025605
112.729000	2.560440	0.025604
112.847000	2.560450	0.025605
112.963000	2.560610	0.025606
113.077000	2.560860	0.025609
113.191000	2.561200	0.025612
113.305000	2.561550	0.025616
113.421000	2.561990	0.025620
113.538000	2.562430	0.025624
113.658000	2.562880	0.025629
113.781000	2.563330	0.025633
113.903000	2.563720	0.025637
114.023000	2.564040	0.025640
114.141000	2.564310	0.025643
114.262000	2.564550	0.025646
114.383000	2.564720	0.025647
114.506000	2.564850	0.025649
114.630000	2.564920	0.025649
114.756000	2.564950	0.025650
114.880000	2.564960	0.025650
115.001000	2.564920	0.025649
115.124000	2.564860	0.025649
115.251000	2.564780	0.025648
115.377000	2.564680	0.025647
115.504000	2.564580	0.025646
115.631000	2.564460	0.025645
115.762000	2.564320	0.025643
115.892000	2.564120	0.025641
116.024000	2.563820	0.025638
116.154000	2.563490	0.025635
116.285000	2.563120	0.025631
116.417000	2.562740	0.025627
116.551000	2.562350	0.025624
116.686000	2.561940	0.025619
116.820000	2.561580	0.025616
116.952000	2.561300	0.025613
117.081000	2.561090	0.025611
117.210000	2.560940	0.025609
117.342000	2.560870	0.025609
117.475000	2.560850	0.025609
117.603000	2.560900	0.025609
117.730000	2.560960	0.025610
117.858000	2.561060	0.025611
117.985000	2.561190	0.025612
118.111000	2.561340	0.025613
118.235000	2.561500	0.025615
118.359000	2.561680	0.025617
118.484000	2.561860	0.025619
118.607000	2.562050	0.025621
118.730000	2.562230	0.025622
118.853000	2.562410	0.025624
118.977000	2.562580	0.025626
119.099000	2.562740	0.025627
119.222000	2.562890	0.025629
119.347000	2.563050	0.025631
119.472000	2.563190	0.025632
119.596000	2.563320	0.025633
119.721000	2.563430	0.025634
119.850000	2.563550	0.025636
119.983000	2.563610	0.025636
120.117000	2.563650	0.025637
120.252000	2.563680	0.025637
120.388000	2.563670	0.025637
120.523000	2.563650	0.025637
120.658000	2.563600	0.025636
120.794000	2.563480	0.025635
120.927000	2.563300	0.025633
121.062000	2.563060	0.025631
121.195000	2.562760	0.025628
121.328000	2.562380	0.025624
121.459000	2.561900	0.025619
121.589000	2.561350	0.025614
121.717000	2.560790	0.025608
121.842000	2.560210	0.025602
121.965000	2.559630	0.025596
122.085000	2.559070	0.025591
122.203000	2.558540	0.025585
122.322000	2.558090	0.025581
122.444000	2.557750	0.025578
122.569000	2.557530	0.025575
122.694000	2.557400	0.025574
122.818000	2.557390	0.025574
122.941000	2.557490	0.025575
123.064000	2.557670	0.025577
123.186000	2.557900	0.025579
123.312000	2.558190	0.025582
123.441000	2.558490	0.025585
123.571000	2.558800	0.025588
123.702000	2.559100	0.025591
123.833000	2.559420	0.025594
123.967000	2.559750	0.025598
124.102000	2.560090	0.025601
124.239000	2.560450	0.025605
124.377000	2.560840	0.025608
124.516000	2.561200	0.025612
124.655000	2.561550	0.025616
124.792000	2.561830	0.025618
124.927000	2.562050	0.025621
125.064000	2.562200	0.025622
125.202000	2.562260	0.025623
125.340000	2.562230	0.025622
125.478000	2.562090	0.025621
125.616000	2.561940	0.025619
125.752000	2.561690	0.025617
125.889000	2.561390	0.025614
126.026000	2.561060	0.025611
126.161000	2.560730	0.025607
126.294000	2.560400	0.025604
126.427000	2.560090	0.025601
126.561000	2.559810	0.025598
126.696000	2.559550	0.025596
126.832000	2.559300	0.025593
126.969000	2.559070	0.025591
127.105000	2.558850	0.025589
127.240000	2.558640	0.025586
127.375000	2.558430	0.025584
127.505000	2.558220	0.025582
127.633000	2.558040	0.025580
127.760000	2.557850	0.025579
127.885000	2.557670	0.025577
128.009000	2.557520	0.025575
128.134000	2.557360	0.025574
128.259000	2.557230	0.025572
128.380000	2.557120	0.025571
128.499000	2.557030	0.025570
128.619000	2.556970	0.025570
128.737000	2.556920	0.025569
128.854000	2.556870	0.025569
128.973000	2.556830	0.025568
129.091000	2.556750	0.025568
129.211000	2.556640	0.025566
129.331000	2.556490	0.025565
129.452000	2.556330	0.025563
129.573000	2.556200	0.025562
129.693000	2.556060	0.025561
129.815000	2.555920	0.025559
129.937000	2.555770	0.025558
130.060000	2.555630	0.025556
130.183000	2.555480	0.025555
130.304000	2.555310	0.025553
130.422000	2.555150	0.025552
130.540000	2.555000	0.025550
130.657000	2.554830	0.025548
130.775000	2.554650	0.025547
130.895000	2.554470	0.025545
131.015000	2.554280	0.025543
131.137000	2.554080	0.025541
131.261000	2.553890	0.025539
131.387000	2.553700	0.025537
131.512000	2.553510	0.025535
131.640000	2.553370	0.025534
131.770000	2.553210	0.025532
131.900000	2.553090	0.025531
132.028000	2.552990	0.025530
132.156000	2.552950	0.025530
132.283000	2.552970	0.025530
132.411000	2.553020	0.025530
132.540000	2.553140	0.025531
132.666000	2.553280	0.025533
132.788000	2.553500	0.025535
132.903000	2.553750	0.025538
133.013000	2.554040	0.025540
133.120000	2.554350	0.025544
133.227000	2.554640	0.025546
133.334000	2.554920	0.025549
133.437000	2.555200	0.025552
133.539000	2.555460	0.025555
133.640000	2.555700	0.025557
133.741000	2.555930	0.025559
133.844000	2.556150	0.025562
133.950000	2.556390	0.025564
134.058000	2.556590	0.025566
134.167000	2.556720	0.025567
134.278000	2.556820	0.025568
134.391000	2.556840	0.025568
134.505000	2.556810	0.025568
134.617000	2.556690	0.025567
134.730000	2.556470	0.025565
134.843000	2.556140	0.025561
134.956000	2.555680	0.025557
135.072000	2.554990	0.025550
135.188000	2.554350	0.025544
135.307000	2.553680	0.025537
135.427000	2.553000	0.025530
135.547000	2.552320	0.025523
135.668000	2.551680	0.025517
135.790000	2.551100	0.025511
135.913000	2.550580	0.025506
136.038000	2.550140	0.025501
136.167000	2.549740	0.025497
136.299000	2.549380	0.025494
136.432000	2.549050	0.025491
136.568000	2.548720	0.025487
136.704000	2.548380	0.025484
136.843000	2.548070	0.025481
136.983000	2.547780	0.025478
137.125000	2.547520	0.025475
137.265000	2.547270	0.025473
137.410000	2.547050	0.025471
137.556000	2.546860	0.025469
137.699000	2.546690	0.025467
137.845000	2.546550	0.025466
137.993000	2.546410	0.025464
138.140000	2.546280	0.025463
138.288000	2.546170	0.025462
138.435000	2.546050	0.025461
138.583000	2.545940	0.025459
138.729000	2.545820	0.025458
138.875000	2.545680	0.025457
139.021000	2.545530	0.025455
139.165000	2.545360	0.025454
139.307000	2.545190	0.025452
139.448000	2.545040	0.025450
139.588000	2.544910	0.025449
139.728000	2.544830	0.025448
139.870000	2.544800	0.025448
140.014000	2.544820	0.025448
140.157000	2.544870	0.025449
140.303000	2.544960	0.025450
140.446000	2.545070	0.025451
140.589000	2.545190	0.025452
140.730000	2.545340	0.025453
140.870000	2.545490	0.025455
141.011000	2.545630	0.025456
141.154000	2.545780	0.025458
141.300000	2.545910	0.025459
141.445000	2.546040	0.025460
141.588000	2.546160	0.025462
141.733000	2.546290	0.025463
141.876000	2.546420	0.025464
142.021000	2.546550	0.025466
142.166000	2.546670	0.025467
142.307000	2.546760	0.025468
142.449000	2.546820	0.025468
142.593000	2.546840	0.025468
142.742000	2.546820	0.025468
142.894000	2.546790	0.025468
143.046000	2.546720	0.025467
143.197000	2.546620	0.025466
143.347000	2.546500	0.025465
143.498000	2.546340	0.025463
143.651000	2.546020	0.025460
143.804000	2.545800	0.025458
143.956000	2.545590	0.025456
144.108000	2.545390	0.025454
144.260000	2.545230	0.025452
144.410000	2.545070	0.025451
144.557000	2.544890	0.025449
144.702000	2.544630	0.025446
144.843000	2.544290	0.025443
144.986000	2.543820	0.025438
145.130000	2.543290	0.025433
145.276000	2.542630	0.025426
145.421000	2.541860	0.025419
145.567000	2.540970	0.025410
145.712000	2.539970	0.025400
145.856000	2.538890	0.025389
146.000000	2.537780	0.025378
146.143000	2.536630	0.025366
146.286000	2.535470	0.025355
146.427000	2.534290	0.025343
146.569000	2.533110	0.025331
146.709000	2.531920	0.025319
146.850000	2.530720	0.025307
146.989000	2.529510	0.025295
147.128000	2.528360	0.025284
147.269000	2.527410	0.025274
147.408000	2.526730	0.025267
147.545000	2.526310	0.025263
147.682000	2.526100	0.025261
147.819000	2.525970	0.025260
147.957000	2.525820	0.025258
148.097000	2.525790	0.025258
148.237000	2.525810	0.025258
148.376000	2.525870	0.025259
148.516000	2.525970	0.025260
148.656000	2.526070	0.025261
148.795000	2.526190	0.025262
148.934000	2.526290	0.025263
149.074000	2.526370	0.025264
149.216000	2.526550	0.025266
149.361000	2.526470	0.025265
149.508000	2.526260	0.025263
149.654000	2.525910	0.025259
149.801000	2.525430	0.025254
149.947000	2.524800	0.025248
150.093000	2.524010	0.025240
150.240000	2.523080	0.025231
150.386000	2.522040	0.025220
150.533000	2.520920	0.025209
150.677000	2.519760	0.025198
150.820000	2.518570	0.025186
150.963000	2.517350	0.025174
151.105000	2.516100	0.025161
151.247000	2.514850	0.025149
151.388000	2.513570	0.025136
151.530000	2.512260	0.025123
151.672000	2.510950	0.025110
151.814000	2.509700	0.025097
151.957000	2.508570	0.025086
152.098000	2.507630	0.025076
152.242000	2.506850	0.025069
152.387000	2.506130	0.025061
152.534000	2.505560	0.025056
152.681000	2.505010	0.025050
152.826000	2.504450	0.025045
152.968000	2.503870	0.025039
153.114000	2.503300	0.025033
153.260000	2.502720	0.025027
153.408000	2.502130	0.025021
153.557000	2.501530	0.025015
153.707000	2.500940	0.025009
153.860000	2.500320	0.025003
154.011000	2.499670	0.024997
154.161000	2.498970	0.024990
154.309000	2.498200	0.024982
154.459000	2.497340	0.024973
154.608000	2.496380	0.024964
154.755000	2.495300	0.024953
154.903000	2.494100	0.024941
155.047000	2.492760	0.024928
155.192000	2.491280	0.024913
155.339000	2.489680	0.024897
155.484000	2.487920	0.024879
155.627000	2.486030	0.024860
155.769000	2.484030	0.024840
155.911000	2.481940	0.024819
156.053000	2.479790	0.024798
156.198000	2.477590	0.024776
156.343000	2.475360	0.024754
156.490000	2.473100	0.024731
156.639000	2.470800	0.024708
156.789000	2.468480	0.024685
156.939000	2.466050	0.024661
157.093000	2.463620	0.024636
157.246000	2.461180	0.024612
157.397000	2.458760	0.024588
157.550000	2.456420	0.024564
157.700000	2.454260	0.024543
157.850000	2.452250	0.024523
157.998000	2.450370	0.024504
158.144000	2.448680	0.024487
158.290000	2.446880	0.024469
158.437000	2.445090	0.024451
158.583000	2.443290	0.024433
158.729000	2.441450	0.024415
158.873000	2.439610	0.024396
159.016000	2.437790	0.024378
159.159000	2.436030	0.024360
159.301000	2.434340	0.024343
159.443000	2.432700	0.024327
159.586000	2.431110	0.024311
159.728000	2.429550	0.024296
159.869000	2.427990	0.024280
160.010000	2.426400	0.024264
160.149000	2.424750	0.024248
160.289000	2.422990	0.024230
160.428000	2.421090	0.024211
160.568000	2.419030	0.024190
160.709000	2.416780	0.024168
160.852000	2.414360	0.024144
160.995000	2.411780	0.024118
161.139000	2.409060	0.024091
161.285000	2.406270	0.024063
161.430000	2.403400	0.024034
161.575000	2.400470	0.024005
161.723000	2.397340	0.023973
161.869000	2.393950	0.023940
162.016000	2.390330	0.023903
162.163000	2.386530	0.023865
162.311000	2.382660	0.023827
162.460000	2.378830	0.023788
162.610000	2.374910	0.023749
162.756000	2.370970	0.023710
162.900000	2.367020	0.023670
163.040000	2.363060	0.023631
163.176000	2.359140	0.023591
163.311000	2.355240	0.023552
163.443000	2.351400	0.023514
163.576000	2.347660	0.023477
163.712000	2.344050	0.023441
163.851000	2.340570	0.023406
163.992000	2.337240	0.023372
164.133000	2.334040	0.023340
164.272000	2.330980	0.023310
164.409000	2.328050	0.023281
164.545000	2.325240	0.023252
164.679000	2.322560	0.023226
164.815000	2.319960	0.023200
164.952000	2.317400	0.023174
165.091000	2.314850	0.023149
165.231000	2.312300	0.023123
165.372000	2.309750	0.023098
165.515000	2.307180	0.023072
165.660000	2.304570	0.023046
165.804000	2.301930	0.023019
165.950000	2.299250	0.022993
166.094000	2.296510	0.022965
166.243000	2.293630	0.022936
166.397000	2.290540	0.022905
166.551000	2.287150	0.022872
166.705000	2.283440	0.022834
166.857000	2.279490	0.022795
167.006000	2.275160	0.022752
167.154000	2.270580	0.022706
167.300000	2.265770	0.022658
167.444000	2.260730	0.022607
167.588000	2.255430	0.022554
167.730000	2.249880	0.022499
167.870000	2.244070	0.022441
168.013000	2.238050	0.022381
168.156000	2.231840	0.022318
168.297000	2.225480	0.022255
168.436000	2.219000	0.022190
168.576000	2.212450	0.022125
168.715000	2.205890	0.022059
168.855000	2.199370	0.021994
168.996000	2.192930	0.021929
169.135000	2.186610	0.021866
169.272000	2.180400	0.021804
169.406000	2.174330	0.021743
169.537000	2.168370	0.021684
169.670000	2.162520	0.021625
169.804000	2.156800	0.021568
169.938000	2.151170	0.021512
170.072000	2.145650	0.021457
170.206000	2.140140	0.021401
170.343000	2.134660	0.021347
170.479000	2.129210	0.021292
170.616000	2.123770	0.021238
170.753000	2.118370	0.021184
170.887000	2.112960	0.021130
171.022000	2.107570	0.021076
171.157000	2.102220	0.021022
171.292000	2.096830	0.020968
171.428000	2.091410	0.020914
171.566000	2.085920	0.020859
171.704000	2.080270	0.020803
171.843000	2.074390	0.020744
171.984000	2.068310	0.020683
172.130000	2.062050	0.020621
172.272000	2.055670	0.020557
172.412000	2.049240	0.020492
172.551000	2.042750	0.020428
172.688000	2.036210	0.020362
172.827000	2.029640	0.020296
172.966000	2.023010	0.020230
173.104000	2.016360	0.020164
173.244000	2.009670	0.020097
173.387000	2.002960	0.020030
173.536000	1.996250	0.019963
173.687000	1.989550	0.019896
173.837000	1.982890	0.019829
173.987000	1.976280	0.019763
174.135000	1.969750	0.019698
174.280000	1.963330	0.019633
174.423000	1.957010	0.019570
174.562000	1.950800	0.019508
174.701000	1.944730	0.019447
174.842000	1.938800	0.019388
174.986000	1.933030	0.019330
175.130000	1.927390	0.019274
175.276000	1.921850	0.019219
175.422000	1.916370	0.019164
175.570000	1.910940	0.019109
175.715000	1.905500	0.019055
175.854000	1.900080	0.019001
175.990000	1.894650	0.018947
176.124000	1.889200	0.018892
176.257000	1.883740	0.018837
176.391000	1.878300	0.018783
176.526000	1.872880	0.018729
176.661000	1.867480	0.018675
176.794000	1.862080	0.018621
176.925000	1.856690	0.018567
177.054000	1.851280	0.018513
177.185000	1.845820	0.018458
177.317000	1.840260	0.018403
177.452000	1.834490	0.018345
177.589000	1.828430	0.018284
177.728000	1.822050	0.018221
177.869000	1.815330	0.018153
178.010000	1.808290	0.018083
178.153000	1.800920	0.018009
178.297000	1.793240	0.017932
178.440000	1.785260	0.017853
178.585000	1.777010	0.017770
178.731000	1.768510	0.017685
178.879000	1.759820	0.017598
179.030000	1.751000	0.017510
179.182000	1.742120	0.017421
179.331000	1.733190	0.017332
179.476000	1.724240	0.017242
179.621000	1.715270	0.017153
179.765000	1.706330	0.017063
179.908000	1.697410	0.016974
180.053000	1.688520	0.016885
180.197000	1.679670	0.016797
180.339000	1.670880	0.016709
180.482000	1.662160	0.016622
180.625000	1.653530	0.016535
180.767000	1.645050	0.016451
180.907000	1.636720	0.016367
181.047000	1.628590	0.016286
181.186000	1.620710	0.016207
181.326000	1.613080	0.016131
181.468000	1.605730	0.016057
181.611000	1.598660	0.015987
181.753000	1.591860	0.015919
181.893000	1.585340	0.015853
182.032000	1.579050	0.015791
182.171000	1.572970	0.015730
182.310000	1.567050	0.015671
182.450000	1.561260	0.015613
182.589000	1.555540	0.015555
182.728000	1.549870	0.015499
182.871000	1.544190	0.015442
183.017000	1.538510	0.015385
183.165000	1.532830	0.015328
183.314000	1.527150	0.015272
183.464000	1.521460	0.015215
183.613000	1.515780	0.015158
183.765000	1.510120	0.015101
183.918000	1.504470	0.015045
184.073000	1.498840	0.014988
184.228000	1.493180	0.014932
184.380000	1.487560	0.014876
184.531000	1.481920	0.014819
184.683000	1.476230	0.014762
184.833000	1.470500	0.014705
184.985000	1.464700	0.014647
185.138000	1.458840	0.014588
185.292000	1.452930	0.014529
185.446000	1.446970	0.014470
185.599000	1.440960	0.014410
185.748000	1.434920	0.014349
185.896000	1.428840	0.014288
186.042000	1.422710	0.014227
186.187000	1.416550	0.014166
186.333000	1.410370	0.014104
186.482000	1.404120	0.014041
186.634000	1.397820	0.013978
186.790000	1.391430	0.013914
186.949000	1.384970	0.013850
187.105000	1.378400	0.013784
187.257000	1.371740	0.013717
187.409000	1.364970	0.013650
187.561000	1.358100	0.013581
187.712000	1.351200	0.013512
187.862000	1.344260	0.013443
188.009000	1.337280	0.013373
188.150000	1.330300	0.013303
188.287000	1.323330	0.013233
188.420000	1.316350	0.013164
188.549000	1.309340	0.013093
188.676000	1.302310	0.013023
188.799000	1.295260	0.012953
188.921000	1.288180	0.012882
189.041000	1.281060	0.012811
189.159000	1.273910	0.012739
189.277000	1.266710	0.012667
189.394000	1.259470	0.012595
189.509000	1.252210	0.012522
189.625000	1.244940	0.012449
189.741000	1.237670	0.012377
189.857000	1.230370	0.012304
189.977000	1.223060	0.012231
190.101000	1.215720	0.012157
190.230000	1.208360	0.012084
190.362000	1.200960	0.012010
190.496000	1.193520	0.011935
190.631000	1.186060	0.011861
190.767000	1.178540	0.011785
190.903000	1.170990	0.011710
191.042000	1.163410	0.011634
191.182000	1.155830	0.011558
191.324000	1.148260	0.011483
191.467000	1.140760	0.011408
191.610000	1.133470	0.011335
191.752000	1.126370	0.011264
191.893000	1.119510	0.011195
192.032000	1.112910	0.011129
192.171000	1.106590	0.011066
192.309000	1.100560	0.011006
192.449000	1.094820	0.010948
192.591000	1.089350	0.010894
192.733000	1.084180	0.010842
192.876000	1.079250	0.010793
193.018000	1.074540	0.010745
193.158000	1.070000	0.010700
193.293000	1.065540	0.010655
193.427000	1.061170	0.010612
193.562000	1.056850	0.010569
193.698000	1.052570	0.010526
193.835000	1.048290	0.010483
193.973000	1.043960	0.010440
194.109000	1.039550	0.010396
194.242000	1.035020	0.010350
194.375000	1.030340	0.010303
194.509000	1.025500	0.010255
194.645000	1.020510	0.010205
194.781000	1.015360	0.010154
194.919000	1.010100	0.010101
195.057000	1.004670	0.010047
195.194000	0.999070	0.009991
195.331000	0.993288	0.009933
195.470000	0.987323	0.009873
195.611000	0.981182	0.009812
195.754000	0.974880	0.009749
195.897000	0.968434	0.009684
196.041000	0.961933	0.009619
196.183000	0.955285	0.009553
196.324000	0.948523	0.009485
196.462000	0.941690	0.009417
196.597000	0.934800	0.009348
196.730000	0.927845	0.009278
196.864000	0.920829	0.009208
196.995000	0.913762	0.009138
197.125000	0.906652	0.009067
197.257000	0.899485	0.008995
197.391000	0.892276	0.008923
197.521000	0.885043	0.008850
197.649000	0.877783	0.008778
197.778000	0.870535	0.008705
197.906000	0.863294	0.008633
198.036000	0.856077	0.008561
198.169000	0.848898	0.008489
198.304000	0.841752	0.008418
198.439000	0.834679	0.008347
198.575000	0.827671	0.008277
198.712000	0.820746	0.008207
198.852000	0.813907	0.008139
198.994000	0.807149	0.008071
199.138000	0.800490	0.008005
199.281000	0.793904	0.007939
199.424000	0.787388	0.007874
199.567000	0.780930	0.007809
199.713000	0.774524	0.007745
199.860000	0.768177	0.007682
200.006000	0.761898	0.007619
200.152000	0.755689	0.007557
200.298000	0.749578	0.007496
200.444000	0.743573	0.007436
200.590000	0.737667	0.007377
200.736000	0.731891	0.007319
200.883000	0.726257	0.007263
201.031000	0.720763	0.007208
201.177000	0.715400	0.007154
201.322000	0.710090	0.007101
201.467000	0.704867	0.007049
201.605000	0.699677	0.006997
201.738000	0.694477	0.006945
201.864000	0.689223	0.006892
201.988000	0.683900	0.006839
202.113000	0.678513	0.006785
202.240000	0.673030	0.006730
202.368000	0.667464	0.006675
202.497000	0.661795	0.006618
202.629000	0.656030	0.006560
202.762000	0.650171	0.006502
202.897000	0.644209	0.006442
203.033000	0.638136	0.006381
203.167000	0.631951	0.006320
203.298000	0.625664	0.006257
203.429000	0.619283	0.006193
203.559000	0.612830	0.006128
203.687000	0.606343	0.006063
203.812000	0.599811	0.005998
203.936000	0.593278	0.005933
204.057000	0.586766	0.005868
204.176000	0.580281	0.005803
204.294000	0.573803	0.005738
204.417000	0.567477	0.005675
204.539000	0.561171	0.005612
204.660000	0.554925	0.005549
204.782000	0.548741	0.005487
204.908000	0.542619	0.005426
205.037000	0.536571	0.005366
205.167000	0.530531	0.005305
205.297000	0.524547	0.005245
205.426000	0.518600	0.005186
205.553000	0.512684	0.005127
205.677000	0.506765	0.005068
205.798000	0.500832	0.005008
205.920000	0.494869	0.004949
206.043000	0.488872	0.004889
206.168000	0.482826	0.004828
206.297000	0.476765	0.004768
206.430000	0.470739	0.004707
206.566000	0.464816	0.004648
206.701000	0.459009	0.004590
206.835000	0.453304	0.004533
206.973000	0.447650	0.004477
207.112000	0.441996	0.004420
207.250000	0.436328	0.004363
207.391000	0.430684	0.004307
207.532000	0.425124	0.004251
207.675000	0.419675	0.004197
207.817000	0.414359	0.004144
207.959000	0.409187	0.004092
208.105000	0.404154	0.004042
208.255000	0.399251	0.003993
208.406000	0.394503	0.003945
208.559000	0.390002	0.003900
208.710000	0.385527	0.003855
208.861000	0.381209	0.003812
209.008000	0.377057	0.003771
209.153000	0.373068	0.003731
209.298000	0.369260	0.003693
209.441000	0.365625	0.003656
209.584000	0.362062	0.003621
209.727000	0.358683	0.003587
209.864000	0.355430	0.003554
209.996000	0.352289	0.003523
210.128000	0.349203	0.003492
210.262000	0.346201	0.003462
210.398000	0.343253	0.003433
210.534000	0.340340	0.003403
210.668000	0.337443	0.003374
210.800000	0.334561	0.003346
210.930000	0.331687	0.003317
211.060000	0.328805	0.003288
211.192000	0.325921	0.003259
211.331000	0.322988	0.003230
211.468000	0.320018	0.003200
211.608000	0.317003	0.003170
211.752000	0.313951	0.003140
211.902000	0.310871	0.003109
212.053000	0.307730	0.003077
212.203000	0.304541	0.003045
212.349000	0.301296	0.003013
212.495000	0.298015	0.002980
212.641000	0.294704	0.002947
212.782000	0.291337	0.002913
212.921000	0.287967	0.002880
213.058000	0.284533	0.002845
213.193000	0.281202	0.002812
213.328000	0.277985	0.002780
213.469000	0.274962	0.002750
213.612000	0.272103	0.002721
213.760000	0.269414	0.002694
213.912000	0.266791	0.002668
214.067000	0.264171	0.002642
214.224000	0.261554	0.002616
214.382000	0.258957	0.002590
214.539000	0.256358	0.002564
214.693000	0.253758	0.002538
214.841000	0.251193	0.002512
214.987000	0.248651	0.002487
215.130000	0.246142	0.002461
215.271000	0.243685	0.002437
215.408000	0.241326	0.002413
215.543000	0.239050	0.002391
215.678000	0.236907	0.002369
215.815000	0.234896	0.002349
215.950000	0.233019	0.002330
216.084000	0.231286	0.002313
216.216000	0.229687	0.002297
216.347000	0.228214	0.002282
216.476000	0.226867	0.002269
216.604000	0.225626	0.002256
216.734000	0.224509	0.002245
216.861000	0.223508	0.002235
216.988000	0.222610	0.002226
217.115000	0.221819	0.002218
217.244000	0.221120	0.002211
217.374000	0.220490	0.002205
217.502000	0.219946	0.002199
217.627000	0.219488	0.002195
217.754000	0.219030	0.002190
217.885000	0.218647	0.002186
218.020000	0.218444	0.002184
218.157000	0.218285	0.002183
218.295000	0.218291	0.002183
218.433000	0.218350	0.002184
218.568000	0.218392	0.002184
218.699000	0.218399	0.002184
218.829000	0.218344	0.002183
218.960000	0.218239	0.002182
219.094000	0.218110	0.002181
219.232000	0.217950	0.002180
219.376000	0.217745	0.002177
219.521000	0.217534	0.002175
219.668000	0.217296	0.002173
219.814000	0.217044	0.002170
219.959000	0.216790	0.002168
220.105000	0.216536	0.002165
220.257000	0.216273	0.002163
220.415000	0.215932	0.002159
220.571000	0.215474	0.002155
220.723000	0.214890	0.002149
220.870000	0.214198	0.002142
221.015000	0.213461	0.002135
221.160000	0.212745	0.002127
221.308000	0.212076	0.002121
221.454000	0.211462	0.002115
221.599000	0.210878	0.002109
221.743000	0.210316	0.002103
221.881000	0.209785	0.002098
222.019000	0.209280	0.002093
222.158000	0.208764	0.002088
222.295000	0.208332	0.002083
222.430000	0.207893	0.002079
222.563000	0.207375	0.002074
222.694000	0.207011	0.002070
222.826000	0.206642	0.002066
222.959000	0.206282	0.002063
223.092000	0.205914	0.002059
223.227000	0.205509	0.002055
223.361000	0.205072	0.002051
223.495000	0.204639	0.002046
223.630000	0.204185	0.002042
223.765000	0.203737	0.002037
223.901000	0.203293	0.002033
224.040000	0.202904	0.002029
224.178000	0.202522	0.002025
224.313000	0.202190	0.002022
224.447000	0.201895	0.002019
224.580000	0.201654	0.002017
224.715000	0.201444	0.002014
224.855000	0.201288	0.002013
225.000000	0.201181	0.002012
225.150000	0.201121	0.002011
225.299000	0.201118	0.002011
225.449000	0.201171	0.002012
225.601000	0.201287	0.002013
225.758000	0.201448	0.002014
225.914000	0.201675	0.002017
226.070000	0.201965	0.002020
226.225000	0.202312	0.002023
226.379000	0.202726	0.002027
226.533000	0.203167	0.002032
226.692000	0.203709	0.002037
226.852000	0.204218	0.002042
227.012000	0.204740	0.002047
227.174000	0.205308	0.002053
227.336000	0.205802	0.002058
227.496000	0.206176	0.002062
227.653000	0.206352	0.002064
227.810000	0.206355	0.002064
227.963000	0.206213	0.002062
228.114000	0.205989	0.002060
228.262000	0.205749	0.002057
228.411000	0.205498	0.002055
228.557000	0.205211	0.002052
228.698000	0.204900	0.002049
228.838000	0.204573	0.002046
228.977000	0.204203	0.002042
229.118000	0.203809	0.002038
229.261000	0.203371	0.002034
229.406000	0.202917	0.002029
229.556000	0.202427	0.002024
229.710000	0.201956	0.002020
229.863000	0.201469	0.002015
230.013000	0.200979	0.002010
230.160000	0.200537	0.002005
230.302000	0.200192	0.002002
230.444000	0.200049	0.002000
230.590000	0.200126	0.002001
230.735000	0.200384	0.002004
230.880000	0.200763	0.002008
231.024000	0.201187	0.002012
231.166000	0.201636	0.002016
231.306000	0.202099	0.002021
231.448000	0.202511	0.002025
231.592000	0.202986	0.002030
231.739000	0.203443	0.002034
231.891000	0.203931	0.002039
232.045000	0.204369	0.002044
232.201000	0.204841	0.002048
232.356000	0.205253	0.002053
232.512000	0.205519	0.002055
232.666000	0.205644	0.002056
232.819000	0.205639	0.002056
232.970000	0.205557	0.002056
233.122000	0.205478	0.002055
233.277000	0.205408	0.002054
233.434000	0.205345	0.002053
233.594000	0.205292	0.002053
233.755000	0.205227	0.002052
233.916000	0.205141	0.002051
234.074000	0.205059	0.002051
234.228000	0.204949	0.002049
234.382000	0.204818	0.002048
234.537000	0.204684	0.002047
234.692000	0.204542	0.002045
234.845000	0.204381	0.002044
234.995000	0.204197	0.002042
235.143000	0.204012	0.002040
235.289000	0.203812	0.002038
235.437000	0.203593	0.002036
235.585000	0.203361	0.002034
235.733000	0.203165	0.002032
235.883000	0.203081	0.002031
236.035000	0.203147	0.002031
236.186000	0.203355	0.002034
236.335000	0.203649	0.002036
236.481000	0.203969	0.002040
236.624000	0.204286	0.002043
236.768000	0.204595	0.002046
236.908000	0.204915	0.002049
237.046000	0.205198	0.002052
237.185000	0.205482	0.002055
237.327000	0.205750	0.002058
237.469000	0.205987	0.002060
237.615000	0.206221	0.002062
237.762000	0.206401	0.002064
237.909000	0.206591	0.002066
238.056000	0.206756	0.002068
238.205000	0.206916	0.002069
238.353000	0.207060	0.002071
238.501000	0.207195	0.002072
238.649000	0.207318	0.002073
238.797000	0.207422	0.002074
238.944000	0.207516	0.002075
239.092000	0.207603	0.002076
239.244000	0.207662	0.002077
239.399000	0.207720	0.002077
239.556000	0.207756	0.002078
239.717000	0.207783	0.002078
239.879000	0.207780	0.002078
240.039000	0.207750	0.002078
240.199000	0.207693	0.002077
240.357000	0.207596	0.002076
240.513000	0.207474	0.002075
240.667000	0.207327	0.002073
240.815000	0.207155	0.002072
240.959000	0.206939	0.002069
241.101000	0.206679	0.002067
241.244000	0.206384	0.002064
241.387000	0.206071	0.002061
241.530000	0.205724	0.002057
241.668000	0.205294	0.002053
241.801000	0.204920	0.002049
241.938000	0.204600	0.002046
242.075000	0.204346	0.002043
242.213000	0.204163	0.002042
242.352000	0.204077	0.002041
242.491000	0.204081	0.002041
242.625000	0.204150	0.002042
242.759000	0.204255	0.002043
242.888000	0.204417	0.002044
243.014000	0.204615	0.002046
243.140000	0.204853	0.002049
243.267000	0.205141	0.002051
243.397000	0.205436	0.002054
243.526000	0.205734	0.002057
243.656000	0.206060	0.002061
243.791000	0.206412	0.002064
243.930000	0.206793	0.002068
244.067000	0.207179	0.002072
244.204000	0.207609	0.002076
244.339000	0.208051	0.002081
244.475000	0.208525	0.002085
244.613000	0.209024	0.002090
244.753000	0.209527	0.002095
244.896000	0.209955	0.002100
245.043000	0.210214	0.002102
245.191000	0.210299	0.002103
245.340000	0.210231	0.002102
245.490000	0.210079	0.002101
245.639000	0.209918	0.002099
245.785000	0.209751	0.002098
245.929000	0.209546	0.002095
246.071000	0.209446	0.002094
246.209000	0.209316	0.002093
246.346000	0.209220	0.002092
246.481000	0.209092	0.002091
246.612000	0.208971	0.002090
246.740000	0.208808	0.002088
246.868000	0.208640	0.002086
246.994000	0.208451	0.002085
247.124000	0.208242	0.002082
247.257000	0.208016	0.002080
247.391000	0.207784	0.002078
247.527000	0.207538	0.002075
247.662000	0.207307	0.002073
247.791000	0.207121	0.002071
247.922000	0.207008	0.002070
248.053000	0.206992	0.002070
248.184000	0.207080	0.002071
248.314000	0.207257	0.002073
248.447000	0.207515	0.002075
248.582000	0.207864	0.002079
248.719000	0.208281	0.002083
248.859000	0.208748	0.002087
249.001000	0.209267	0.002093
249.145000	0.209819	0.002098
249.287000	0.210394	0.002104
249.430000	0.210976	0.002110
249.576000	0.211568	0.002116
249.724000	0.212162	0.002122
249.875000	0.212698	0.002127
250.025000	0.213114	0.002131
250.171000	0.213365	0.002134
250.316000	0.213581	0.002136
250.458000	0.213589	0.002136
250.596000	0.213597	0.002136
250.734000	0.213640	0.002136
250.874000	0.213671	0.002137
251.014000	0.213721	0.002137
251.154000	0.213747	0.002137
251.295000	0.213781	0.002138
251.438000	0.213812	0.002138
251.584000	0.213849	0.002138
251.731000	0.213875	0.002139
251.883000	0.213903	0.002139
252.037000	0.213892	0.002139
252.191000	0.213876	0.002139
252.343000	0.213810	0.002138
252.495000	0.213723	0.002137
252.646000	0.213590	0.002136
252.797000	0.213420	0.002134
252.948000	0.213219	0.002132
253.099000	0.212976	0.002130
253.251000	0.212717	0.002127
253.403000	0.212440	0.002124
253.553000	0.212160	0.002122
253.699000	0.211903	0.002119
253.843000	0.211768	0.002118
253.987000	0.211812	0.002118
254.132000	0.212031	0.002120
254.276000	0.212388	0.002124
254.419000	0.212791	0.002128
254.563000	0.213195	0.002132
254.708000	0.213579	0.002136
254.852000	0.213976	0.002140
254.996000	0.214352	0.002144
255.136000	0.214733	0.002147
255.275000	0.215139	0.002151
255.411000	0.215489	0.002155
255.544000	0.215896	0.002159
255.676000	0.216319	0.002163
255.808000	0.216787	0.002168
255.937000	0.217208	0.002172
256.063000	0.217603	0.002176
256.189000	0.217927	0.002179
256.315000	0.218169	0.002182
256.445000	0.218321	0.002183
256.573000	0.218404	0.002184
256.705000	0.218452	0.002185
256.838000	0.218456	0.002185
256.968000	0.218433	0.002184
257.096000	0.218380	0.002184
257.225000	0.218295	0.002183
257.356000	0.218210	0.002182
257.494000	0.218115	0.002181
257.635000	0.217997	0.002180
257.779000	0.217850	0.002179
257.921000	0.217692	0.002177
258.064000	0.217526	0.002175
258.207000	0.217324	0.002173
258.355000	0.217098	0.002171
258.506000	0.216855	0.002169
258.661000	0.216597	0.002166
258.821000	0.216323	0.002163
258.982000	0.216150	0.002162
259.139000	0.216131	0.002161
259.292000	0.216258	0.002163
259.443000	0.216520	0.002165
259.594000	0.216840	0.002168
259.743000	0.217161	0.002172
259.890000	0.217487	0.002175
260.034000	0.217854	0.002179
260.179000	0.218183	0.002182
260.320000	0.218482	0.002185
260.460000	0.218774	0.002188
260.601000	0.219063	0.002191
260.745000	0.219339	0.002193
260.895000	0.219630	0.002196
261.044000	0.219909	0.002199
261.196000	0.220205	0.002202
261.350000	0.220526	0.002205
261.504000	0.220871	0.002209
261.658000	0.221247	0.002212
261.811000	0.221649	0.002216
261.958000	0.222060	0.002221
262.103000	0.222446	0.002224
262.247000	0.222784	0.002228
262.391000	0.223052	0.002231
262.536000	0.223253	0.002233
262.677000	0.223369	0.002234
262.820000	0.223435	0.002234
262.967000	0.223438	0.002234
263.118000	0.223399	0.002234
263.266000	0.223314	0.002233
263.411000	0.223170	0.002232
263.552000	0.222990	0.002230
263.691000	0.222785	0.002228
263.828000	0.222544	0.002225
263.966000	0.222290	0.002223
264.109000	0.222009	0.002220
264.259000	0.221714	0.002217
264.413000	0.221398	0.002214
264.568000	0.221083	0.002211
264.722000	0.220663	0.002207
264.874000	0.220441	0.002204
265.023000	0.220341	0.002203
265.169000	0.220337	0.002203
265.311000	0.220463	0.002205
265.453000	0.220692	0.002207
265.599000	0.220942	0.002209
265.749000	0.221201	0.002212
265.898000	0.221439	0.002214
266.048000	0.221668	0.002217
266.197000	0.221913	0.002219
266.347000	0.222169	0.002222
266.494000	0.222433	0.002224
266.640000	0.222693	0.002227
266.788000	0.222975	0.002230
266.937000	0.223255	0.002233
267.088000	0.223570	0.002236
267.241000	0.223910	0.002239
267.392000	0.224274	0.002243
267.542000	0.224663	0.002247
267.692000	0.225058	0.002251
267.845000	0.225504	0.002255
268.005000	0.225949	0.002259
268.169000	0.226383	0.002264
268.333000	0.226712	0.002267
268.495000	0.226885	0.002269
268.656000	0.226892	0.002269
268.815000	0.226755	0.002268
268.975000	0.226609	0.002266
269.133000	0.226464	0.002265
269.287000	0.226343	0.002263
269.437000	0.226209	0.002262
269.583000	0.226093	0.002261
269.720000	0.225977	0.002260
269.852000	0.225832	0.002258
269.978000	0.225713	0.002257
270.101000	0.225563	0.002256
270.229000	0.225392	0.002254
270.360000	0.225238	0.002252
270.494000	0.225152	0.002252
270.626000	0.225087	0.002251
270.757000	0.225093	0.002251
270.890000	0.225165	0.002252
271.027000	0.225295	0.002253
271.170000	0.225473	0.002255
271.316000	0.225677	0.002257
271.458000	0.225928	0.002259
271.595000	0.226192	0.002262
271.728000	0.226459	0.002265
271.860000	0.226736	0.002267
271.995000	0.227014	0.002270
272.130000	0.227325	0.002273
272.266000	0.227646	0.002276
272.406000	0.227974	0.002280
272.545000	0.228295	0.002283
272.684000	0.228620	0.002286
272.828000	0.228970	0.002290
272.975000	0.229321	0.002293
273.118000	0.229689	0.002297
273.259000	0.230077	0.002301
273.398000	0.230481	0.002305
273.540000	0.230820	0.002308
273.684000	0.231014	0.002310
273.828000	0.231116	0.002311
273.966000	0.231105	0.002311
274.108000	0.231061	0.002311
274.253000	0.231023	0.002310
274.401000	0.230981	0.002310
274.553000	0.230983	0.002310
274.709000	0.230980	0.002310
274.864000	0.230979	0.002310
275.015000	0.230957	0.002310
275.159000	0.230962	0.002310
275.296000	0.231013	0.002310
275.429000	0.231039	0.002310
275.566000	0.231070	0.002311
275.705000	0.231105	0.002311
275.849000	0.231130	0.002311
275.998000	0.231144	0.002311
276.147000	0.231130	0.002311
276.293000	0.231084	0.002311
276.436000	0.231007	0.002310
276.576000	0.230932	0.002309
276.722000	0.230861	0.002309
276.870000	0.230811	0.002308
277.018000	0.230755	0.002308
277.169000	0.230731	0.002307
277.323000	0.230728	0.002307
277.482000	0.230759	0.002308
277.644000	0.230815	0.002308
277.808000	0.230911	0.002309
277.969000	0.231052	0.002311
278.129000	0.231252	0.002313
278.289000	0.231478	0.002315
278.451000	0.231761	0.002318
278.612000	0.232076	0.002321
278.767000	0.232451	0.002325
278.915000	0.232878	0.002329
279.060000	0.233351	0.002334
279.206000	0.233863	0.002339
279.354000	0.234417	0.002344
279.494000	0.234926	0.002349
279.632000	0.235353	0.002354
279.770000	0.235684	0.002357
279.909000	0.235928	0.002359
280.047000	0.236130	0.002361
280.187000	0.236325	0.002363
280.329000	0.236504	0.002365
280.475000	0.236682	0.002367
280.623000	0.236856	0.002369
280.772000	0.236987	0.002370
280.920000	0.237104	0.002371
281.062000	0.237223	0.002372
281.200000	0.237353	0.002374
281.335000	0.237490	0.002375
281.470000	0.237594	0.002376
281.606000	0.237668	0.002377
281.745000	0.237706	0.002377
281.883000	0.237713	0.002377
282.020000	0.237641	0.002376
282.155000	0.237558	0.002376
282.294000	0.237424	0.002374
282.435000	0.237255	0.002373
282.577000	0.237075	0.002371
282.716000	0.236878	0.002369
282.852000	0.236671	0.002367
282.990000	0.236491	0.002365
283.126000	0.236385	0.002364
283.260000	0.236305	0.002363
283.394000	0.236507	0.002365
283.528000	0.236881	0.002369
283.665000	0.237366	0.002374
283.802000	0.237915	0.002379
283.944000	0.238510	0.002385
284.090000	0.239115	0.002391
284.232000	0.239721	0.002397
284.370000	0.240297	0.002403
284.502000	0.240842	0.002408
284.632000	0.241321	0.002413
284.765000	0.241691	0.002417
284.896000	0.241977	0.002420
285.030000	0.242154	0.002422
285.162000	0.242214	0.002422
285.295000	0.242209	0.002422
285.429000	0.242120	0.002421
285.563000	0.241954	0.002420
285.701000	0.241717	0.002417
285.840000	0.241449	0.002414
285.985000	0.241165	0.002412
286.135000	0.240892	0.002409
286.284000	0.240641	0.002406
286.435000	0.240395	0.002404
286.583000	0.240155	0.002402
286.727000	0.239888	0.002399
286.868000	0.239748	0.002397
287.007000	0.239776	0.002398
287.145000	0.239969	0.002400
287.280000	0.240314	0.002403
287.414000	0.240733	0.002407
287.551000	0.241169	0.002412
287.692000	0.241594	0.002416
287.834000	0.241988	0.002420
287.973000	0.242387	0.002424
288.106000	0.242738	0.002427
288.232000	0.243064	0.002431
288.353000	0.243355	0.002434
288.476000	0.243635	0.002436
288.603000	0.243912	0.002439
288.729000	0.244142	0.002441
288.851000	0.244328	0.002443
288.974000	0.244495	0.002445
289.103000	0.244613	0.002446
289.234000	0.244637	0.002446
289.365000	0.244570	0.002446
289.496000	0.244487	0.002445
289.621000	0.244362	0.002444
289.746000	0.244217	0.002442
289.870000	0.244071	0.002441
289.994000	0.243914	0.002439
290.121000	0.243756	0.002438
290.249000	0.243616	0.002436
290.378000	0.243537	0.002435
290.506000	0.243563	0.002436
290.634000	0.243763	0.002438
290.760000	0.244092	0.002441
290.886000	0.244519	0.002445
291.014000	0.244964	0.002450
291.143000	0.245397	0.002454
291.270000	0.245786	0.002458
291.393000	0.246147	0.002461
291.511000	0.246477	0.002465
291.627000	0.246783	0.002468
291.740000	0.247066	0.002471
291.852000	0.247343	0.002473
291.959000	0.247584	0.002476
292.060000	0.247807	0.002478
292.159000	0.248000	0.002480
292.259000	0.248171	0.002482
292.356000	0.248298	0.002483
292.453000	0.248359	0.002484
292.547000	0.248333	0.002483
292.640000	0.248293	0.002483
292.736000	0.248169	0.002482
292.828000	0.247931	0.002479
292.918000	0.247743	0.002477
293.010000	0.247490	0.002475
293.099000	0.247218	0.002472
293.187000	0.246964	0.002470
293.271000	0.246716	0.002467
293.351000	0.246489	0.002465
293.428000	0.246312	0.002463
293.508000	0.246153	0.002462
293.590000	0.245977	0.002460
293.675000	0.245824	0.002458
293.763000	0.245684	0.002457
293.848000	0.245605	0.002456
293.930000	0.245548	0.002455
294.012000	0.245526	0.002455
294.089000	0.245521	0.002455
294.165000	0.245601	0.002456
294.241000	0.245771	0.002458
294.317000	0.246097	0.002461
294.397000	0.246555	0.002466
294.477000	0.247128	0.002471
294.547000	0.247766	0.002478
294.613000	0.248402	0.002484
294.674000	0.249026	0.002490
294.738000	0.249602	0.002496
294.804000	0.250217	0.002502
294.870000	0.250481	0.002505
294.938000	0.250593	0.002506
295.010000	0.250623	0.002506
295.082000	0.250597	0.002506
295.151000	0.250553	0.002506
295.215000	0.250495	0.002505
295.272000	0.250430	0.002504
295.324000	0.250331	0.002503
295.370000	0.250198	0.002502
295.411000	0.250005	0.002500
295.455000	0.249762	0.002498
295.502000	0.249487	0.002495
295.549000	0.249182	0.002492
295.594000	0.248923	0.002489
295.635000	0.248684	0.002487
295.676000	0.248502	0.002485
295.717000	0.248396	0.002484
295.757000	0.248326	0.002483
295.796000	0.248285	0.002483
295.837000	0.248315	0.002483
295.874000	0.248467	0.002485
295.916000	0.248776	0.002488
295.963000	0.249228	0.002492
296.012000	0.249787	0.002498
296.055000	0.250476	0.002505
296.097000	0.251045	0.002510
296.142000	0.251445	0.002514
296.190000	0.251685	0.002517
296.238000	0.251810	0.002518
296.282000	0.251859	0.002519
296.324000	0.251889	0.002519
296.361000	0.251892	0.002519
296.396000	0.251898	0.002519
296.433000	0.251895	0.002519
296.475000	0.251881	0.002519
296.526000	0.251851	0.002519
296.582000	0.251807	0.002518
296.642000	0.251705	0.002517
296.704000	0.251561	0.002516
296.769000	0.251375	0.002514
296.833000	0.251176	0.002512
296.897000	0.250957	0.002510
296.958000	0.250758	0.002508
297.016000	0.250620	0.002506
297.073000	0.250548	0.002505
297.132000	0.250517	0.002505
297.195000	0.250533	0.002505
297.261000	0.250576	0.002506
297.326000	0.250636	0.002506
297.389000	0.250799	0.002508
297.451000	0.251137	0.002511
297.510000	0.251611	0.002516
297.567000	0.252172	0.002522
297.622000	0.252644	0.002526
297.676000	0.252943	0.002529
297.732000	0.253089	0.002531
297.788000	0.253132	0.002531
297.841000	0.253129	0.002531
297.891000	0.253121	0.002531
297.936000	0.253133	0.002531
297.983000	0.253155	0.002532
298.033000	0.253196	0.002532
298.086000	0.253251	0.002533
298.141000	0.253299	0.002533
298.196000	0.253340	0.002533
298.248000	0.253386	0.002534
298.293000	0.253408	0.002534
298.335000	0.253441	0.002534
298.370000	0.253415	0.002534
298.402000	0.253354	0.002534
298.439000	0.253295	0.002533
298.479000	0.253210	0.002532
298.518000	0.253065	0.002531
298.551000	0.252909	0.002529
298.581000	0.252848	0.002528
298.611000	0.252664	0.002527
298.640000	0.252511	0.002525
298.665000	0.252392	0.002524
298.687000	0.252293	0.002523
298.709000	0.252224	0.002522
298.731000	0.252176	0.002522
298.751000	0.252142	0.002521
298.773000	0.252146	0.002521
298.799000	0.252217	0.002522
298.830000	0.252359	0.002524
298.862000	0.252615	0.002526
298.893000	0.252956	0.002530
298.924000	0.253383	0.002534
298.959000	0.253853	0.002539
298.997000	0.254329	0.002543
299.040000	0.254791	0.002548
299.084000	0.255144	0.002551
299.129000	0.255349	0.002553
299.172000	0.255437	0.002554
299.216000	0.255413	0.002554
299.256000	0.255338	0.002553
299.294000	0.255278	0.002553
299.328000	0.255216	0.002552
299.359000	0.255159	0.002552
299.390000	0.255040	0.002550
299.416000	0.254994	0.002550
299.443000	0.254927	0.002549
299.471000	0.254848	0.002548
299.498000	0.254795	0.002548
299.531000	0.254723	0.002547
299.564000	0.254648	0.002546
299.599000	0.254566	0.002546
299.635000	0.254509	0.002545
299.673000	0.254474	0.002545
299.715000	0.254489	0.002545
299.753000	0.254521	0.002545
299.791000	0.254575	0.002546
299.826000	0.254657	0.002547
299.854000	0.254740	0.002547
299.873000	0.254812	0.002548
299.889000	0.254891	0.002549
299.908000	0.254951	0.002550
299.929000	0.255003	0.002550
299.950000	0.255061	0.002551
299.969000	0.255096	0.002551
299.985000	0.255142	0.002551
299.997000	0.255178	0.002552
300.007000	0.255212	0.002552
300.016000	0.255252	0.002553
300.028000	0.255283	0.002553
300.044000	0.255349	0.002553
300.066000	0.255442	0.002554
300.094000	0.255563	0.002556
300.125000	0.255646	0.002556
300.155000	0.255743	0.002557
300.186000	0.255814	0.002558
300.222000	0.255898	0.002559
300.263000	0.255958	0.002560
300.301000	0.255988	0.002560
300.335000	0.255967	0.002560
300.363000	0.255909	0.002559
300.388000	0.255796	0.002558
300.408000	0.255660	0.002557
300.424000	0.255522	0.002555
300.440000	0.255396	0.002554
300.461000	0.255300	0.002553
300.487000	0.255263	0.002553
300.516000	0.255244	0.002552
300.551000	0.255258	0.002553
300.589000	0.255279	0.002553
300.627000	0.255286	0.002553
300.661000	0.255344	0.002553
300.693000	0.255510	0.002555
300.726000	0.255899	0.002559
300.758000	0.256263	0.002563
300.793000	0.256544	0.002565
300.832000	0.256713	0.002567
300.872000	0.256707	0.002567
300.914000	0.256709	0.002567
300.957000	0.256715	0.002567
301.002000	0.256702	0.002567
301.047000	0.256715	0.002567
301.093000	0.256726	0.002567
301.137000	0.256737	0.002567
301.179000	0.256773	0.002568
301.218000	0.256816	0.002568
301.258000	0.256855	0.002569
301.290000	0.256894	0.002569
301.317000	0.256942	0.002569
301.343000	0.256971	0.002570
301.366000	0.256972	0.002570
301.387000	0.256958	0.002570
301.407000	0.256902	0.002569
301.431000	0.256831	0.002568
301.459000	0.256753	0.002568
301.493000	0.256646	0.002566
301.530000	0.256559	0.002566
301.570000	0.256486	0.002565
301.613000	0.256421	0.002564
301.657000	0.256367	0.002564
301.702000	0.256376	0.002564
301.741000	0.256395	0.002564
301.772000	0.256434	0.002564
301.801000	0.256470	0.002565
301.826000	0.256517	0.002565
301.851000	0.256597	0.002566
301.880000	0.256737	0.002567
301.914000	0.256964	0.002570
301.948000	0.257271	0.002573
301.977000	0.257566	0.002576
302.000000	0.257788	0.002578
302.016000	0.257934	0.002579
302.032000	0.257983	0.002580
302.053000	0.257969	0.002580
302.082000	0.257955	0.002580
302.113000	0.257926	0.002579
302.140000	0.257920	0.002579
302.166000	0.257939	0.002579
302.190000	0.257968	0.002580
302.219000	0.257995	0.002580
302.251000	0.258016	0.002580
302.285000	0.258027	0.002580
302.316000	0.258084	0.002581
302.347000	0.258051	0.002581
302.377000	0.258004	0.002580
302.402000	0.257973	0.002580
302.419000	0.257972	0.002580
302.430000	0.257949	0.002579
302.440000	0.257901	0.002579
302.452000	0.257847	0.002578
302.461000	0.257792	0.002578
302.466000	0.257736	0.002577
302.469000	0.257681	0.002577
302.474000	0.257628	0.002576
302.484000	0.257552	0.002576
302.495000	0.257509	0.002575
302.504000	0.257479	0.002575
302.517000	0.257467	0.002575
302.536000	0.257477	0.002575
302.560000	0.257479	0.002575
302.583000	0.257484	0.002575
302.609000	0.257498	0.002575
302.634000	0.257563	0.002576
302.656000	0.257700	0.002577
302.677000	0.257952	0.002580
302.696000	0.258240	0.002582
302.714000	0.258497	0.002585
302.728000	0.258635	0.002586
302.741000	0.258714	0.002587
302.755000	0.258758	0.002588
302.763000	0.258800	0.002588
302.769000	0.258842	0.002588
302.774000	0.258875	0.002589
302.785000	0.258899	0.002589
302.798000	0.258887	0.002589
302.810000	0.258851	0.002589
302.821000	0.258794	0.002588
302.830000	0.258705	0.002587
302.839000	0.258578	0.002586
302.850000	0.258410	0.002584
302.860000	0.258225	0.002582
302.868000	0.258065	0.002581
302.881000	0.257943	0.002579
302.898000	0.257864	0.002579
302.915000	0.257841	0.002578
302.934000	0.257858	0.002579
302.953000	0.257881	0.002579
302.975000	0.257930	0.002579
302.996000	0.257948	0.002579
303.011000	0.258019	0.002580
303.022000	0.258239	0.002582
303.026000	0.258628	0.002586
303.032000	0.258963	0.002590
303.038000	0.259123	0.002591
303.045000	0.259223	0.002592
303.051000	0.259246	0.002592
303.060000	0.259248	0.002592
303.069000	0.259269	0.002593
303.078000	0.259254	0.002593
303.088000	0.259240	0.002592
303.094000	0.259249	0.002592
303.101000	0.259248	0.002592
303.104000	0.259277	0.002593
303.097000	0.259299	0.002593
303.088000	0.259317	0.002593
303.081000	0.259365	0.002594
303.077000	0.259393	0.002594
303.074000	0.259388	0.002594
303.070000	0.259334	0.002593
303.062000	0.259254	0.002593
303.055000	0.259147	0.002591
303.052000	0.259010	0.002590
303.052000	0.258838	0.002588
303.055000	0.258694	0.002587
303.062000	0.258553	0.002586
303.071000	0.258442	0.002584
303.083000	0.258359	0.002584
303.098000	0.258356	0.002584
303.114000	0.258394	0.002584
303.128000	0.258431	0.002584
303.138000	0.258499	0.002585
303.149000	0.258583	0.002586
303.158000	0.258717	0.002587
303.166000	0.258963	0.002590
303.171000	0.259305	0.002593
303.177000	0.259679	0.002597
303.180000	0.259995	0.002600
303.181000	0.260194	0.002602
303.181000	0.260237	0.002602
303.178000	0.260228	0.002602
303.178000	0.260162	0.002602
303.180000	0.260068	0.002601
303.182000	0.259985	0.002600
303.185000	0.259936	0.002599
303.184000	0.259889	0.002599
303.182000	0.259867	0.002599
303.180000	0.259844	0.002598
303.179000	0.259839	0.002598
303.174000	0.259827	0.002598
303.166000	0.259809	0.002598
303.158000	0.259787	0.002598
303.150000	0.259747	0.002597
303.147000	0.259630	0.002596
303.147000	0.259585	0.002596
303.147000	0.259544	0.002595
303.149000	0.259506	0.002595
303.153000	0.259443	0.002594
303.154000	0.259397	0.002594
303.150000	0.259356	0.002594
303.142000	0.259297	0.002593
303.131000	0.259251	0.002593
303.122000	0.259206	0.002592
303.113000	0.259167	0.002592
303.104000	0.259149	0.002591
303.093000	0.259151	0.002592
303.086000	0.259163	0.002592
303.082000	0.259193	0.002592
303.079000	0.259247	0.002592
303.075000	0.259273	0.002593
303.072000	0.259332	0.002593
303.068000	0.259387	0.002594
303.063000	0.259476	0.002595
303.056000	0.259694	0.002597
303.053000	0.259976	0.002600
303.056000	0.260241	0.002602
303.062000	0.260330	0.002603
303.072000	0.260399	0.002604
303.081000	0.260475	0.002605
303.086000	0.260540	0.002605
303.089000	0.260578	0.002606
303.096000	0.260629	0.002606
303.107000	0.260674	0.002607
303.123000	0.260663	0.002607
303.144000	0.260649	0.002606
303.167000	0.260605	0.002606
303.196000	0.260540	0.002605
303.224000	0.260422	0.002604
303.255000	0.260273	0.002603
303.292000	0.260103	0.002601
303.328000	0.259952	0.002600
303.357000	0.259831	0.002598
303.386000	0.259759	0.002598
303.414000	0.259735	0.002597
303.440000	0.259735	0.002597
303.463000	0.259738	0.002597
303.485000	0.259727	0.002597
303.503000	0.259719	0.002597
303.513000	0.259755	0.002598
303.520000	0.259914	0.002599
303.522000	0.260150	0.002602
303.519000	0.260339	0.002603
303.512000	0.260466	0.002605
303.508000	0.260580	0.002606
303.509000	0.260622	0.002606
303.512000	0.260661	0.002607
303.518000	0.260683	0.002607
303.525000	0.260698	0.002607
303.532000	0.260733	0.002607
303.539000	0.260779	0.002608
303.546000	0.260795	0.002608
303.551000	0.260834	0.002608
303.555000	0.260888	0.002609
303.565000	0.260922	0.002609
303.580000	0.260941	0.002609
303.602000	0.260891	0.002609
303.622000	0.260765	0.002608
303.641000	0.260588	0.002606
303.657000	0.260362	0.002604
303.668000	0.260119	0.002601
303.677000	0.259876	0.002599
303.685000	0.259650	0.002597
303.693000	0.259493	0.002595
303.704000	0.259416	0.002594
303.719000	0.259362	0.002594
303.739000	0.259344	0.002593
303.762000	0.259328	0.002593
303.783000	0.259386	0.002594
303.807000	0.259519	0.002595
303.836000	0.259838	0.002598
303.865000	0.260245	0.002602
303.899000	0.260695	0.002607
303.935000	0.261115	0.002611
303.975000	0.261438	0.002614
304.017000	0.261619	0.002616
304.054000	0.261669	0.002617
304.089000	0.261636	0.002616
304.122000	0.261556	0.002616
304.152000	0.261479	0.002615
304.183000	0.261441	0.002614
304.219000	0.261390	0.002614
304.252000	0.261368	0.002614
304.285000	0.261359	0.002614
304.321000	0.261379	0.002614
304.357000	0.261410	0.002614
304.393000	0.261451	0.002615
304.427000	0.261470	0.002615
304.456000	0.261487	0.002615
304.477000	0.261465	0.002615
304.487000	0.261438	0.002614
304.491000	0.261396	0.002614
304.493000	0.261337	0.002613
304.493000	0.261275	0.002613
304.489000	0.261230	0.002612
304.484000	0.261145	0.002611
304.480000	0.261107	0.002611
304.473000	0.261055	0.002611
304.465000	0.260993	0.002610
304.458000	0.260931	0.002609
304.447000	0.260852	0.002609
304.435000	0.260776	0.002608
304.423000	0.260709	0.002607
304.412000	0.260656	0.002607
304.396000	0.260628	0.002606
304.375000	0.260593	0.002606
304.351000	0.260562	0.002606
304.338000	0.260569	0.002606
304.325000	0.260579	0.002606
304.309000	0.260600	0.002606
304.298000	0.260686	0.002607
304.292000	0.260889	0.002609
304.292000	0.261231	0.002612
304.297000	0.261639	0.002616
304.307000	0.261934	0.002619
304.318000	0.262120	0.002621
304.329000	0.262231	0.002622
304.336000	0.262315	0.002623
304.339000	0.262334	0.002623
304.339000	0.262342	0.002623
304.336000	0.262356	0.002624
304.333000	0.262344	0.002623
304.330000	0.262277	0.002623
304.330000	0.262183	0.002622
304.335000	0.262062	0.002621
304.343000	0.261909	0.002619
304.357000	0.261720	0.002617
304.380000	0.261520	0.002615
304.402000	0.261316	0.002613
304.420000	0.261133	0.002611
304.430000	0.261000	0.002610
304.436000	0.260923	0.002609
304.441000	0.260906	0.002609
304.445000	0.260898	0.002609
304.449000	0.260888	0.002609
304.453000	0.260898	0.002609
304.465000	0.260915	0.002609
