Temperature	Strain_p	Strain
304.546000	0.612387	0.006124
304.542000	0.612387	0.006124
304.530000	0.612441	0.006124
304.516000	0.612557	0.006126
304.503000	0.612706	0.006127
304.489000	0.613035	0.006130
304.474000	0.613203	0.006132
304.456000	0.613376	0.006134
304.438000	0.613504	0.006135
304.419000	0.613574	0.006136
304.399000	0.613610	0.006136
304.380000	0.613586	0.006136
304.362000	0.613494	0.006135
304.344000	0.613355	0.006134
304.327000	0.613170	0.006132
304.302000	0.612966	0.006130
304.274000	0.612789	0.006128
304.245000	0.612616	0.006126
304.215000	0.612493	0.006125
304.184000	0.612425	0.006124
304.151000	0.612399	0.006124
304.118000	0.612496	0.006125
304.086000	0.612686	0.006127
304.055000	0.612973	0.006130
304.024000	0.613381	0.006134
303.993000	0.613744	0.006137
303.965000	0.614119	0.006141
303.938000	0.614491	0.006145
303.911000	0.614784	0.006148
303.883000	0.615014	0.006150
303.850000	0.615182	0.006152
303.813000	0.615280	0.006153
303.775000	0.615339	0.006153
303.741000	0.615360	0.006154
303.710000	0.615343	0.006153
303.682000	0.615160	0.006152
303.657000	0.615011	0.006150
303.631000	0.614811	0.006148
303.599000	0.614556	0.006146
303.571000	0.614270	0.006143
303.540000	0.613986	0.006140
303.507000	0.613658	0.006137
303.472000	0.613321	0.006133
303.435000	0.612990	0.006130
303.398000	0.612870	0.006129
303.361000	0.612531	0.006125
303.323000	0.612258	0.006123
303.285000	0.612007	0.006120
303.243000	0.611759	0.006118
303.193000	0.611522	0.006115
303.136000	0.611302	0.006113
303.074000	0.611234	0.006112
303.010000	0.610992	0.006110
302.943000	0.610706	0.006107
302.877000	0.610200	0.006102
302.812000	0.609870	0.006099
302.748000	0.609557	0.006096
302.686000	0.609218	0.006092
302.628000	0.609151	0.006092
302.573000	0.608925	0.006089
302.517000	0.608751	0.006088
302.461000	0.608638	0.006086
302.404000	0.608592	0.006086
302.345000	0.608556	0.006086
302.285000	0.608547	0.006085
302.223000	0.608583	0.006086
302.158000	0.608662	0.006087
302.093000	0.608801	0.006088
302.030000	0.608925	0.006089
301.962000	0.609071	0.006091
301.892000	0.609227	0.006092
301.819000	0.609382	0.006094
301.745000	0.609556	0.006096
301.663000	0.609708	0.006097
301.578000	0.609903	0.006099
301.494000	0.610147	0.006101
301.416000	0.610365	0.006104
301.345000	0.610541	0.006105
301.279000	0.610725	0.006107
301.211000	0.610750	0.006108
301.145000	0.610669	0.006107
301.081000	0.610477	0.006105
301.016000	0.610170	0.006102
300.949000	0.609842	0.006098
300.882000	0.609468	0.006095
300.813000	0.609068	0.006091
300.742000	0.608653	0.006087
300.668000	0.608247	0.006082
300.591000	0.607865	0.006079
300.513000	0.607531	0.006075
300.440000	0.607254	0.006073
300.369000	0.607046	0.006070
300.300000	0.606879	0.006069
300.228000	0.606768	0.006068
300.158000	0.606735	0.006067
300.087000	0.606778	0.006068
300.013000	0.606909	0.006069
299.937000	0.607224	0.006072
299.857000	0.607417	0.006074
299.779000	0.607630	0.006076
299.698000	0.607851	0.006079
299.614000	0.608092	0.006081
299.527000	0.608333	0.006083
299.438000	0.608567	0.006086
299.347000	0.608819	0.006088
299.255000	0.609052	0.006091
299.164000	0.609263	0.006093
299.069000	0.609431	0.006094
298.967000	0.609571	0.006096
298.860000	0.609689	0.006097
298.754000	0.609887	0.006099
298.650000	0.609944	0.006099
298.549000	0.609950	0.006100
298.447000	0.609915	0.006099
298.343000	0.609866	0.006099
298.247000	0.609792	0.006098
298.151000	0.609643	0.006096
298.057000	0.609466	0.006095
297.962000	0.609227	0.006092
297.869000	0.608938	0.006089
297.778000	0.608582	0.006086
297.687000	0.608196	0.006082
297.594000	0.607811	0.006078
297.503000	0.607442	0.006074
297.420000	0.607128	0.006071
297.343000	0.606889	0.006069
297.268000	0.606729	0.006067
297.195000	0.606656	0.006067
297.122000	0.606650	0.006067
297.049000	0.606430	0.006064
296.976000	0.606529	0.006065
296.903000	0.606708	0.006067
296.826000	0.606928	0.006069
296.748000	0.607185	0.006072
296.667000	0.607447	0.006074
296.586000	0.607819	0.006078
296.504000	0.608076	0.006081
296.422000	0.608296	0.006083
296.340000	0.608470	0.006085
296.258000	0.608578	0.006086
296.173000	0.608613	0.006086
296.089000	0.608577	0.006086
296.007000	0.608448	0.006084
295.920000	0.608225	0.006082
295.838000	0.607916	0.006079
295.756000	0.607523	0.006075
295.672000	0.607049	0.006070
295.583000	0.606535	0.006065
295.495000	0.606007	0.006060
295.409000	0.605535	0.006055
295.321000	0.605057	0.006051
295.230000	0.604606	0.006046
295.134000	0.604235	0.006042
295.036000	0.603960	0.006040
294.938000	0.603951	0.006040
294.841000	0.603814	0.006038
294.743000	0.603698	0.006037
294.647000	0.603608	0.006036
294.552000	0.603550	0.006036
294.459000	0.603495	0.006035
294.367000	0.603451	0.006035
294.277000	0.603409	0.006034
294.188000	0.603386	0.006034
294.103000	0.603390	0.006034
294.017000	0.603435	0.006034
293.932000	0.603489	0.006035
293.843000	0.603556	0.006036
293.753000	0.603615	0.006036
293.663000	0.603872	0.006039
293.570000	0.603993	0.006040
293.478000	0.604097	0.006041
293.382000	0.604201	0.006042
293.281000	0.604331	0.006043
293.174000	0.604487	0.006045
293.062000	0.604607	0.006046
292.950000	0.604702	0.006047
292.835000	0.604780	0.006048
292.716000	0.604839	0.006048
292.592000	0.604890	0.006049
292.469000	0.604947	0.006049
292.349000	0.605010	0.006050
292.234000	0.605083	0.006051
292.122000	0.605158	0.006052
292.013000	0.605224	0.006052
291.910000	0.605281	0.006053
291.806000	0.605319	0.006053
291.701000	0.605343	0.006053
291.593000	0.605470	0.006055
291.490000	0.605482	0.006055
291.390000	0.605468	0.006055
291.286000	0.605459	0.006055
291.181000	0.605442	0.006054
291.075000	0.605473	0.006055
290.969000	0.605495	0.006055
290.863000	0.605484	0.006055
290.755000	0.605442	0.006054
290.648000	0.605330	0.006053
290.543000	0.605191	0.006052
290.436000	0.604998	0.006050
290.327000	0.604749	0.006047
290.217000	0.604438	0.006044
290.105000	0.604082	0.006041
289.992000	0.603695	0.006037
289.875000	0.603277	0.006033
289.754000	0.602833	0.006028
289.630000	0.602408	0.006024
289.504000	0.602006	0.006020
289.374000	0.601616	0.006016
289.243000	0.601289	0.006013
289.112000	0.601022	0.006010
288.980000	0.600685	0.006007
288.849000	0.600493	0.006005
288.717000	0.600386	0.006004
288.587000	0.600303	0.006003
288.451000	0.600219	0.006002
288.313000	0.600135	0.006001
288.175000	0.600067	0.006001
288.035000	0.600003	0.006000
287.896000	0.599949	0.005999
287.758000	0.599909	0.005999
287.623000	0.599896	0.005999
287.492000	0.599877	0.005999
287.364000	0.599860	0.005999
287.239000	0.599816	0.005998
287.114000	0.599768	0.005998
286.988000	0.599593	0.005996
286.860000	0.599493	0.005995
286.731000	0.599396	0.005994
286.602000	0.599307	0.005993
286.471000	0.599528	0.005995
286.339000	0.599506	0.005995
286.207000	0.599465	0.005995
286.074000	0.599438	0.005994
285.940000	0.599413	0.005994
285.801000	0.599406	0.005994
285.656000	0.599412	0.005994
285.511000	0.599454	0.005995
285.364000	0.599542	0.005995
285.216000	0.599681	0.005997
285.065000	0.599879	0.005999
284.914000	0.600099	0.006001
284.764000	0.600405	0.006004
284.616000	0.600755	0.006008
284.472000	0.601133	0.006011
284.328000	0.601507	0.006015
284.185000	0.601919	0.006019
284.045000	0.602364	0.006024
283.911000	0.602822	0.006028
283.788000	0.603274	0.006033
283.666000	0.603635	0.006036
283.545000	0.603964	0.006040
283.428000	0.604195	0.006042
283.317000	0.604298	0.006043
283.212000	0.604247	0.006042
283.109000	0.604084	0.006041
283.005000	0.603806	0.006038
282.899000	0.603456	0.006035
282.788000	0.603053	0.006031
282.680000	0.602596	0.006026
282.567000	0.602136	0.006021
282.454000	0.601676	0.006017
282.338000	0.601247	0.006012
282.221000	0.600848	0.006008
282.102000	0.600413	0.006004
281.981000	0.600106	0.006001
281.860000	0.599858	0.005999
281.738000	0.599679	0.005997
281.615000	0.599559	0.005996
281.491000	0.599344	0.005993
281.365000	0.599312	0.005993
281.239000	0.599316	0.005993
281.109000	0.599342	0.005993
280.978000	0.599342	0.005993
280.847000	0.599331	0.005993
280.715000	0.599292	0.005993
280.584000	0.599219	0.005992
280.456000	0.599107	0.005991
280.326000	0.598956	0.005990
280.200000	0.598767	0.005988
280.075000	0.598526	0.005985
279.949000	0.598243	0.005982
279.824000	0.598046	0.005980
279.704000	0.597772	0.005978
279.586000	0.597482	0.005975
279.467000	0.597228	0.005972
279.349000	0.597023	0.005970
279.230000	0.596842	0.005968
279.110000	0.596626	0.005966
278.989000	0.596562	0.005966
278.872000	0.596573	0.005966
278.760000	0.596623	0.005966
278.648000	0.596719	0.005967
278.538000	0.596837	0.005968
278.429000	0.597004	0.005970
278.321000	0.597221	0.005972
278.208000	0.597479	0.005975
278.093000	0.597797	0.005978
277.976000	0.598162	0.005982
277.856000	0.598557	0.005986
277.735000	0.598954	0.005990
277.616000	0.599370	0.005994
277.498000	0.599763	0.005998
277.379000	0.600131	0.006001
277.259000	0.600495	0.006005
277.136000	0.600833	0.006008
277.011000	0.601119	0.006011
276.886000	0.601349	0.006013
276.757000	0.601547	0.006015
276.628000	0.601651	0.006017
276.501000	0.601670	0.006017
276.382000	0.601603	0.006016
276.265000	0.601469	0.006015
276.152000	0.601255	0.006013
276.040000	0.600980	0.006010
275.933000	0.600664	0.006007
275.829000	0.600310	0.006003
275.725000	0.599923	0.005999
275.619000	0.599514	0.005995
275.510000	0.599105	0.005991
275.400000	0.598794	0.005988
275.289000	0.598422	0.005984
275.178000	0.598091	0.005981
275.066000	0.597814	0.005978
274.951000	0.597627	0.005976
274.836000	0.597504	0.005975
274.719000	0.597571	0.005976
274.599000	0.597616	0.005976
274.477000	0.597678	0.005977
274.353000	0.597770	0.005978
274.226000	0.597859	0.005979
274.096000	0.597956	0.005980
273.963000	0.598054	0.005981
273.829000	0.598135	0.005981
273.694000	0.598199	0.005982
273.558000	0.598231	0.005982
273.423000	0.598239	0.005982
273.291000	0.598204	0.005982
273.159000	0.598128	0.005981
273.027000	0.598004	0.005980
272.894000	0.597834	0.005978
272.764000	0.597667	0.005977
272.634000	0.597435	0.005974
272.505000	0.597207	0.005972
272.374000	0.596978	0.005970
272.243000	0.596810	0.005968
272.111000	0.596629	0.005966
271.981000	0.596447	0.005964
271.853000	0.596249	0.005962
271.727000	0.596066	0.005961
271.602000	0.595901	0.005959
271.474000	0.595782	0.005958
271.346000	0.595736	0.005957
271.218000	0.595761	0.005958
271.085000	0.595860	0.005959
270.954000	0.596049	0.005960
270.819000	0.596295	0.005963
270.683000	0.596577	0.005966
270.546000	0.596914	0.005969
270.406000	0.597213	0.005972
270.266000	0.597515	0.005975
270.126000	0.597799	0.005978
269.986000	0.598085	0.005981
269.848000	0.598302	0.005983
269.711000	0.598546	0.005985
269.577000	0.598645	0.005986
269.442000	0.598678	0.005987
269.307000	0.598641	0.005986
269.172000	0.598536	0.005985
269.037000	0.598358	0.005984
268.903000	0.598123	0.005981
268.767000	0.597842	0.005978
268.632000	0.597506	0.005975
268.496000	0.597137	0.005971
268.361000	0.596742	0.005967
268.226000	0.596331	0.005963
268.090000	0.595823	0.005958
267.955000	0.595429	0.005954
267.822000	0.595091	0.005951
267.692000	0.594795	0.005948
267.566000	0.594591	0.005946
267.439000	0.594466	0.005945
267.311000	0.594309	0.005943
267.187000	0.594305	0.005943
267.065000	0.594380	0.005944
266.941000	0.594474	0.005945
266.814000	0.594579	0.005946
266.685000	0.594713	0.005947
266.555000	0.594814	0.005948
266.424000	0.594904	0.005949
266.293000	0.594963	0.005950
266.162000	0.595001	0.005950
266.031000	0.595002	0.005950
265.898000	0.594969	0.005950
265.764000	0.594891	0.005949
265.629000	0.594718	0.005947
265.492000	0.594578	0.005946
265.355000	0.594406	0.005944
265.216000	0.594225	0.005942
265.077000	0.594039	0.005940
264.939000	0.593913	0.005939
264.804000	0.593804	0.005938
264.672000	0.593719	0.005937
264.541000	0.593666	0.005937
264.412000	0.593619	0.005936
264.287000	0.593590	0.005936
264.163000	0.593590	0.005936
264.042000	0.593632	0.005936
263.924000	0.593714	0.005937
263.805000	0.593843	0.005938
263.681000	0.594011	0.005940
263.552000	0.594211	0.005942
263.422000	0.594448	0.005944
263.287000	0.594828	0.005948
263.152000	0.595102	0.005951
263.016000	0.595361	0.005954
262.880000	0.595620	0.005956
262.744000	0.595899	0.005959
262.606000	0.596216	0.005962
262.471000	0.596496	0.005965
262.335000	0.596660	0.005967
262.202000	0.596857	0.005969
262.070000	0.597002	0.005970
261.935000	0.597068	0.005971
261.800000	0.597033	0.005970
261.665000	0.596906	0.005969
261.527000	0.596685	0.005967
261.381000	0.596373	0.005964
261.233000	0.596003	0.005960
261.085000	0.595567	0.005956
260.937000	0.595110	0.005951
260.790000	0.594620	0.005946
260.644000	0.594278	0.005943
260.502000	0.593774	0.005938
260.363000	0.593278	0.005933
260.224000	0.592828	0.005928
260.087000	0.592438	0.005924
259.948000	0.592133	0.005921
259.808000	0.591923	0.005919
259.667000	0.591788	0.005918
259.523000	0.591728	0.005917
259.375000	0.591707	0.005917
259.226000	0.591746	0.005917
259.077000	0.591794	0.005918
258.929000	0.591859	0.005919
258.782000	0.591904	0.005919
258.638000	0.591964	0.005920
258.494000	0.592019	0.005920
258.356000	0.592087	0.005921
258.221000	0.592141	0.005921
258.086000	0.592188	0.005922
257.947000	0.592268	0.005923
257.806000	0.592303	0.005923
257.661000	0.592327	0.005923
257.517000	0.592368	0.005924
257.375000	0.592400	0.005924
257.235000	0.592492	0.005925
257.096000	0.592607	0.005926
256.958000	0.592702	0.005927
256.819000	0.592856	0.005929
256.679000	0.593003	0.005930
256.540000	0.593154	0.005932
256.400000	0.593304	0.005933
256.257000	0.593443	0.005934
256.109000	0.593596	0.005936
255.957000	0.593768	0.005938
255.804000	0.593976	0.005940
255.650000	0.594219	0.005942
255.498000	0.594493	0.005945
255.347000	0.594818	0.005948
255.194000	0.595177	0.005952
255.038000	0.595586	0.005956
254.881000	0.596026	0.005960
254.720000	0.596484	0.005965
254.559000	0.596947	0.005969
254.401000	0.597420	0.005974
254.245000	0.597968	0.005980
254.091000	0.598369	0.005984
253.938000	0.598683	0.005987
253.788000	0.598905	0.005989
253.639000	0.599008	0.005990
253.494000	0.598997	0.005990
253.350000	0.598882	0.005989
253.209000	0.598646	0.005986
253.070000	0.598317	0.005983
252.938000	0.597943	0.005979
252.808000	0.597528	0.005975
252.675000	0.597088	0.005971
252.543000	0.596632	0.005966
252.408000	0.596117	0.005961
252.269000	0.595672	0.005957
252.126000	0.595264	0.005953
251.981000	0.594930	0.005949
251.831000	0.594665	0.005947
251.674000	0.594528	0.005945
251.514000	0.594571	0.005946
251.352000	0.594677	0.005947
251.188000	0.594894	0.005949
251.028000	0.595216	0.005952
250.868000	0.595628	0.005956
250.709000	0.596065	0.005961
250.556000	0.596529	0.005965
250.413000	0.597001	0.005970
250.274000	0.597469	0.005975
250.140000	0.597925	0.005979
250.007000	0.598352	0.005984
249.878000	0.598744	0.005987
249.749000	0.599091	0.005991
249.616000	0.599483	0.005995
249.482000	0.599759	0.005998
249.345000	0.600004	0.006000
249.205000	0.600238	0.006002
249.064000	0.600452	0.006005
248.918000	0.600535	0.006005
248.768000	0.600732	0.006007
248.617000	0.600938	0.006009
248.466000	0.601138	0.006011
248.316000	0.601316	0.006013
248.165000	0.601453	0.006015
248.015000	0.601610	0.006016
247.863000	0.601747	0.006017
247.715000	0.601896	0.006019
247.568000	0.602071	0.006021
247.416000	0.602277	0.006023
247.260000	0.602540	0.006025
247.099000	0.602878	0.006029
246.942000	0.603247	0.006032
246.787000	0.603688	0.006037
246.636000	0.604178	0.006042
246.487000	0.604766	0.006048
246.339000	0.605358	0.006054
246.190000	0.605986	0.006060
246.041000	0.606455	0.006065
245.889000	0.607089	0.006071
245.740000	0.607706	0.006077
245.594000	0.608263	0.006083
245.448000	0.608752	0.006088
245.303000	0.609151	0.006092
245.159000	0.609435	0.006094
245.018000	0.609649	0.006096
244.874000	0.609782	0.006098
244.726000	0.609845	0.006098
244.579000	0.609836	0.006098
244.431000	0.609778	0.006098
244.286000	0.609729	0.006097
244.144000	0.609631	0.006096
244.007000	0.609512	0.006095
243.878000	0.609430	0.006094
243.755000	0.609389	0.006094
243.635000	0.609418	0.006094
243.514000	0.609503	0.006095
243.391000	0.609608	0.006096
243.265000	0.609815	0.006098
243.136000	0.610089	0.006101
243.004000	0.610408	0.006104
242.874000	0.610754	0.006108
242.740000	0.611078	0.006111
242.608000	0.611408	0.006114
242.474000	0.611754	0.006118
242.339000	0.612105	0.006121
242.202000	0.612460	0.006125
242.070000	0.612832	0.006128
241.938000	0.613172	0.006132
241.808000	0.613573	0.006136
241.685000	0.613947	0.006139
241.562000	0.614328	0.006143
241.441000	0.614720	0.006147
241.321000	0.615129	0.006151
241.206000	0.615579	0.006156
241.096000	0.616031	0.006160
240.988000	0.616484	0.006165
240.877000	0.616907	0.006169
240.768000	0.617322	0.006173
240.656000	0.617724	0.006177
240.543000	0.618133	0.006181
240.426000	0.618541	0.006185
240.307000	0.618972	0.006190
240.185000	0.619436	0.006194
240.063000	0.619947	0.006199
239.940000	0.620509	0.006205
239.815000	0.621087	0.006211
239.687000	0.621769	0.006218
239.558000	0.622533	0.006225
239.431000	0.623379	0.006234
239.302000	0.624279	0.006243
239.174000	0.625202	0.006252
239.044000	0.626135	0.006261
238.913000	0.627061	0.006271
238.786000	0.627974	0.006280
238.663000	0.628916	0.006289
238.543000	0.629752	0.006298
238.425000	0.630526	0.006305
238.309000	0.631198	0.006312
238.191000	0.631776	0.006318
238.071000	0.632209	0.006322
237.949000	0.632511	0.006325
237.824000	0.632664	0.006327
237.699000	0.632677	0.006327
237.575000	0.632561	0.006326
237.454000	0.632351	0.006324
237.339000	0.632079	0.006321
237.223000	0.631766	0.006318
237.106000	0.631465	0.006315
236.984000	0.631203	0.006312
236.862000	0.630997	0.006310
236.736000	0.630869	0.006309
236.612000	0.630815	0.006308
236.489000	0.630843	0.006308
236.366000	0.630860	0.006309
236.240000	0.631046	0.006310
236.114000	0.631311	0.006313
235.985000	0.631658	0.006317
235.854000	0.632083	0.006321
235.720000	0.632575	0.006326
235.588000	0.633125	0.006331
235.463000	0.633731	0.006337
235.343000	0.634575	0.006346
235.225000	0.635319	0.006353
235.106000	0.636091	0.006361
234.987000	0.636921	0.006369
234.868000	0.637838	0.006378
234.748000	0.638812	0.006388
234.626000	0.639846	0.006398
234.503000	0.640900	0.006409
234.377000	0.641967	0.006420
234.248000	0.643010	0.006430
234.119000	0.644052	0.006441
233.988000	0.645049	0.006450
233.857000	0.646019	0.006460
233.724000	0.646922	0.006469
233.589000	0.647817	0.006478
233.451000	0.648680	0.006487
233.313000	0.649537	0.006495
233.171000	0.650390	0.006504
233.028000	0.651264	0.006513
232.884000	0.652276	0.006523
232.737000	0.653254	0.006533
232.590000	0.654309	0.006543
232.443000	0.655455	0.006555
232.294000	0.656662	0.006567
232.147000	0.658007	0.006580
231.999000	0.659507	0.006595
231.850000	0.661092	0.006611
231.699000	0.662747	0.006627
231.549000	0.664423	0.006644
231.400000	0.666166	0.006662
231.251000	0.667940	0.006679
231.098000	0.669692	0.006697
230.942000	0.671408	0.006714
230.786000	0.673070	0.006731
230.633000	0.674676	0.006747
230.483000	0.676217	0.006762
230.335000	0.677705	0.006777
230.187000	0.679242	0.006792
230.036000	0.680612	0.006806
229.886000	0.681938	0.006819
229.737000	0.683255	0.006833
229.588000	0.684590	0.006846
229.439000	0.685930	0.006859
229.290000	0.687313	0.006873
229.142000	0.688731	0.006887
228.998000	0.690156	0.006902
228.856000	0.691623	0.006916
228.712000	0.693096	0.006931
228.570000	0.694642	0.006946
228.424000	0.696222	0.006962
228.272000	0.697823	0.006978
228.121000	0.699443	0.006994
227.965000	0.701075	0.007011
227.811000	0.702729	0.007027
227.658000	0.704449	0.007044
227.505000	0.706192	0.007062
227.351000	0.707994	0.007080
227.198000	0.709875	0.007099
227.046000	0.711862	0.007119
226.893000	0.713866	0.007139
226.745000	0.715937	0.007159
226.600000	0.718040	0.007180
226.458000	0.720175	0.007202
226.314000	0.722324	0.007223
226.170000	0.724508	0.007245
226.024000	0.726645	0.007266
225.872000	0.728750	0.007288
225.716000	0.730816	0.007308
225.558000	0.732863	0.007329
225.396000	0.734855	0.007349
225.233000	0.736902	0.007369
225.067000	0.738988	0.007390
224.904000	0.741114	0.007411
224.738000	0.743329	0.007433
224.569000	0.745644	0.007456
224.400000	0.748054	0.007481
224.232000	0.750568	0.007506
224.068000	0.753187	0.007532
223.906000	0.755896	0.007559
223.746000	0.758689	0.007587
223.586000	0.761584	0.007616
223.428000	0.764544	0.007645
223.268000	0.767561	0.007676
223.111000	0.770611	0.007706
222.956000	0.773687	0.007737
222.801000	0.776781	0.007768
222.647000	0.779865	0.007799
222.493000	0.782826	0.007828
222.342000	0.785862	0.007859
222.193000	0.788866	0.007889
222.049000	0.791859	0.007919
221.905000	0.794846	0.007948
221.762000	0.797800	0.007978
221.621000	0.800786	0.008008
221.483000	0.803771	0.008038
221.344000	0.806745	0.008067
221.204000	0.809711	0.008097
221.063000	0.812711	0.008127
220.921000	0.815769	0.008158
220.780000	0.818908	0.008189
220.641000	0.821946	0.008219
220.501000	0.825238	0.008252
220.360000	0.828649	0.008286
220.218000	0.832144	0.008321
220.077000	0.835709	0.008357
219.938000	0.839324	0.008393
219.799000	0.842963	0.008430
219.666000	0.846713	0.008467
219.530000	0.850465	0.008505
219.394000	0.854280	0.008543
219.256000	0.858189	0.008582
219.118000	0.862201	0.008622
218.981000	0.866320	0.008663
218.849000	0.870541	0.008705
218.717000	0.874872	0.008749
218.587000	0.879294	0.008793
218.458000	0.883781	0.008838
218.329000	0.888317	0.008883
218.201000	0.892889	0.008929
218.073000	0.897375	0.008974
217.945000	0.901950	0.009020
217.817000	0.906499	0.009065
217.693000	0.911007	0.009110
217.566000	0.915492	0.009155
217.442000	0.919875	0.009199
217.325000	0.924171	0.009242
217.207000	0.928477	0.009285
217.093000	0.932812	0.009328
216.978000	0.937193	0.009372
216.863000	0.941658	0.009417
216.745000	0.946258	0.009463
216.627000	0.950922	0.009509
216.507000	0.955695	0.009557
216.385000	0.960536	0.009605
216.264000	0.965454	0.009655
216.140000	0.970428	0.009704
216.011000	0.975426	0.009754
215.882000	0.980334	0.009803
215.754000	0.985364	0.009854
215.623000	0.990403	0.009904
215.494000	0.995427	0.009954
215.371000	1.000410	0.010004
215.252000	1.005370	0.010054
215.134000	1.010350	0.010104
215.021000	1.015220	0.010152
214.912000	1.020090	0.010201
214.806000	1.024950	0.010250
214.701000	1.029810	0.010298
214.599000	1.034690	0.010347
214.498000	1.039560	0.010396
214.395000	1.044430	0.010444
214.290000	1.049280	0.010493
214.180000	1.054080	0.010541
214.066000	1.058850	0.010589
213.950000	1.063570	0.010636
213.833000	1.068290	0.010683
213.713000	1.073000	0.010730
213.594000	1.077680	0.010777
213.471000	1.082300	0.010823
213.346000	1.086970	0.010870
213.219000	1.091640	0.010916
213.095000	1.096350	0.010964
212.972000	1.100750	0.011008
212.848000	1.105520	0.011055
212.721000	1.110310	0.011103
212.594000	1.115170	0.011152
212.466000	1.120090	0.011201
212.334000	1.125080	0.011251
212.199000	1.130140	0.011301
212.059000	1.135310	0.011353
211.920000	1.140490	0.011405
211.779000	1.145680	0.011457
211.638000	1.150890	0.011509
211.498000	1.156050	0.011561
211.356000	1.161190	0.011612
211.215000	1.166270	0.011663
211.076000	1.171320	0.011713
210.940000	1.176320	0.011763
210.805000	1.181290	0.011813
210.668000	1.186240	0.011862
210.532000	1.191170	0.011912
210.399000	1.196110	0.011961
210.264000	1.201160	0.012012
210.132000	1.206200	0.012062
209.999000	1.211370	0.012114
209.867000	1.216780	0.012168
209.731000	1.222440	0.012224
209.594000	1.228530	0.012285
209.455000	1.234830	0.012348
209.313000	1.241460	0.012415
209.169000	1.248400	0.012484
209.022000	1.255610	0.012556
208.873000	1.263140	0.012631
208.723000	1.270900	0.012709
208.572000	1.278910	0.012789
208.423000	1.287140	0.012871
208.275000	1.295570	0.012956
208.127000	1.304170	0.013042
207.980000	1.312890	0.013129
207.834000	1.321720	0.013217
207.687000	1.330610	0.013306
207.541000	1.339610	0.013396
207.397000	1.348500	0.013485
207.254000	1.357360	0.013574
207.110000	1.366180	0.013662
206.966000	1.374980	0.013750
206.822000	1.383750	0.013838
206.681000	1.392430	0.013924
206.543000	1.401130	0.014011
206.407000	1.409780	0.014098
206.272000	1.418340	0.014183
206.141000	1.426810	0.014268
206.009000	1.435170	0.014352
205.875000	1.443430	0.014434
205.745000	1.451580	0.014516
205.613000	1.459640	0.014596
205.477000	1.467640	0.014676
205.339000	1.475570	0.014756
205.198000	1.483450	0.014835
205.053000	1.491280	0.014913
204.906000	1.499010	0.014990
204.760000	1.506840	0.015068
204.613000	1.514700	0.015147
204.465000	1.522610	0.015226
204.318000	1.530600	0.015306
204.168000	1.538650	0.015387
204.019000	1.546730	0.015467
203.871000	1.554780	0.015548
203.723000	1.562810	0.015628
203.572000	1.570770	0.015708
203.422000	1.578610	0.015786
203.271000	1.586390	0.015864
203.116000	1.594060	0.015941
202.964000	1.601670	0.016017
202.809000	1.609230	0.016092
202.654000	1.616730	0.016167
202.494000	1.624210	0.016242
202.331000	1.631500	0.016315
202.168000	1.638940	0.016389
202.004000	1.646390	0.016464
201.839000	1.653890	0.016539
201.677000	1.661420	0.016614
201.515000	1.669010	0.016690
201.360000	1.676580	0.016766
201.210000	1.684250	0.016843
201.059000	1.691930	0.016919
200.913000	1.699600	0.016996
200.767000	1.707250	0.017073
200.621000	1.714860	0.017149
200.475000	1.722430	0.017224
200.327000	1.729960	0.017300
200.176000	1.737490	0.017375
200.020000	1.745030	0.017450
199.862000	1.752610	0.017526
199.703000	1.760200	0.017602
199.543000	1.767840	0.017678
199.380000	1.775510	0.017755
199.221000	1.783160	0.017832
199.061000	1.790900	0.017909
198.905000	1.798690	0.017987
198.749000	1.806550	0.018066
198.595000	1.814530	0.018145
198.441000	1.822970	0.018230
198.289000	1.831280	0.018313
198.140000	1.839790	0.018398
197.991000	1.848460	0.018485
197.844000	1.857290	0.018573
197.699000	1.866270	0.018663
197.554000	1.875420	0.018754
197.410000	1.884720	0.018847
197.265000	1.894180	0.018942
197.117000	1.903820	0.019038
196.968000	1.913620	0.019136
196.820000	1.923600	0.019236
196.671000	1.933610	0.019336
196.522000	1.943930	0.019439
196.370000	1.954440	0.019544
196.215000	1.965130	0.019651
196.062000	1.976020	0.019760
195.910000	1.987070	0.019871
195.763000	1.998290	0.019983
195.616000	2.009650	0.020097
195.469000	2.021010	0.020210
195.321000	2.032550	0.020326
195.174000	2.044080	0.020441
195.027000	2.055510	0.020555
194.879000	2.066800	0.020668
194.731000	2.077830	0.020778
194.583000	2.088610	0.020886
194.435000	2.099090	0.020991
194.287000	2.109260	0.021093
194.141000	2.119130	0.021191
193.997000	2.128680	0.021287
193.854000	2.137910	0.021379
193.711000	2.146750	0.021468
193.569000	2.155440	0.021554
193.427000	2.163870	0.021639
193.286000	2.172090	0.021721
193.144000	2.180130	0.021801
193.003000	2.187970	0.021880
192.864000	2.195700	0.021957
192.724000	2.203220	0.022032
192.586000	2.210730	0.022107
192.447000	2.218180	0.022182
192.310000	2.225540	0.022255
192.173000	2.232840	0.022328
192.036000	2.240080	0.022401
191.902000	2.247270	0.022473
191.767000	2.254420	0.022544
191.634000	2.261540	0.022615
191.502000	2.268620	0.022686
191.371000	2.275660	0.022757
191.243000	2.282730	0.022827
191.114000	2.289680	0.022897
190.985000	2.296810	0.022968
190.856000	2.304000	0.023040
190.726000	2.311250	0.023113
190.596000	2.318590	0.023186
190.463000	2.326060	0.023261
190.328000	2.333610	0.023336
190.194000	2.341300	0.023413
190.057000	2.348930	0.023489
189.919000	2.356550	0.023566
189.781000	2.364120	0.023641
189.644000	2.371630	0.023716
189.507000	2.379040	0.023790
189.370000	2.386380	0.023864
189.233000	2.393670	0.023937
189.096000	2.400910	0.024009
188.958000	2.408100	0.024081
188.820000	2.415260	0.024153
188.680000	2.422410	0.024224
188.534000	2.429560	0.024296
188.388000	2.436920	0.024369
188.237000	2.444100	0.024441
188.085000	2.451280	0.024513
187.936000	2.458520	0.024585
187.786000	2.465970	0.024660
187.636000	2.473360	0.024734
187.487000	2.480870	0.024809
187.336000	2.488480	0.024885
187.183000	2.496200	0.024962
187.027000	2.504050	0.025041
186.867000	2.512020	0.025120
186.707000	2.520110	0.025201
186.547000	2.528350	0.025284
186.389000	2.536720	0.025367
186.233000	2.545240	0.025452
186.078000	2.553890	0.025539
185.923000	2.562690	0.025627
185.770000	2.571620	0.025716
185.619000	2.580670	0.025807
185.469000	2.589840	0.025898
185.321000	2.599150	0.025992
185.172000	2.608520	0.026085
185.025000	2.617980	0.026180
184.878000	2.627520	0.026275
184.733000	2.637230	0.026372
184.589000	2.647010	0.026470
184.443000	2.656790	0.026568
184.299000	2.666560	0.026666
184.155000	2.676270	0.026763
184.012000	2.685890	0.026859
183.871000	2.695330	0.026953
183.729000	2.704620	0.027046
183.586000	2.713720	0.027137
183.441000	2.722620	0.027226
183.292000	2.731320	0.027313
183.142000	2.739810	0.027398
182.995000	2.748090	0.027481
182.849000	2.756160	0.027562
182.701000	2.764010	0.027640
182.550000	2.771620	0.027716
182.397000	2.779050	0.027791
182.244000	2.786470	0.027865
182.090000	2.793590	0.027936
181.933000	2.800500	0.028005
181.776000	2.807240	0.028072
181.619000	2.813770	0.028138
181.463000	2.820110	0.028201
181.305000	2.826250	0.028263
181.147000	2.832210	0.028322
180.989000	2.838010	0.028380
180.831000	2.843610	0.028436
180.673000	2.849060	0.028491
180.517000	2.854350	0.028544
180.364000	2.859510	0.028595
180.214000	2.864580	0.028646
180.066000	2.869570	0.028696
179.919000	2.874490	0.028745
179.774000	2.879380	0.028794
179.630000	2.884230	0.028842
179.488000	2.889090	0.028891
179.347000	2.893930	0.028939
179.207000	2.898860	0.028989
179.067000	2.903700	0.029037
178.926000	2.908540	0.029085
178.786000	2.913420	0.029134
178.647000	2.918250	0.029183
178.507000	2.923080	0.029231
178.372000	2.927880	0.029279
178.238000	2.932670	0.029327
178.107000	2.937430	0.029374
177.978000	2.942190	0.029422
177.852000	2.946940	0.029469
177.727000	2.951700	0.029517
177.604000	2.956470	0.029565
177.484000	2.961270	0.029613
177.368000	2.966080	0.029661
177.254000	2.970930	0.029709
177.142000	2.975820	0.029758
177.027000	2.980800	0.029808
176.914000	2.985800	0.029858
176.803000	2.991000	0.029910
176.692000	2.996090	0.029961
176.583000	3.001230	0.030012
176.479000	3.006370	0.030064
176.380000	3.011530	0.030115
176.286000	3.016650	0.030167
176.194000	3.021770	0.030218
176.103000	3.026860	0.030269
176.013000	3.031940	0.030319
175.922000	3.037010	0.030370
175.831000	3.042080	0.030421
175.741000	3.047130	0.030471
175.651000	3.052190	0.030522
175.562000	3.057260	0.030573
175.473000	3.062350	0.030624
175.384000	3.067470	0.030675
175.295000	3.072620	0.030726
175.205000	3.077920	0.030779
175.114000	3.083140	0.030831
175.023000	3.088400	0.030884
174.932000	3.093500	0.030935
174.841000	3.098850	0.030989
174.749000	3.104280	0.031043
174.657000	3.109700	0.031097
174.564000	3.115130	0.031151
174.468000	3.120500	0.031205
174.376000	3.125740	0.031257
174.286000	3.130900	0.031309
174.199000	3.135920	0.031359
174.119000	3.140800	0.031408
174.042000	3.145560	0.031456
173.966000	3.150170	0.031502
173.892000	3.154680	0.031547
173.820000	3.159050	0.031591
173.750000	3.163440	0.031634
173.681000	3.167580	0.031676
173.615000	3.171630	0.031716
173.552000	3.175590	0.031756
173.492000	3.179460	0.031795
173.435000	3.183230	0.031832
173.379000	3.186860	0.031869
173.322000	3.190400	0.031904
173.269000	3.193840	0.031938
173.215000	3.197140	0.031971
173.163000	3.200290	0.032003
173.113000	3.203220	0.032032
173.064000	3.206040	0.032060
173.014000	3.208710	0.032087
172.963000	3.211240	0.032112
172.911000	3.213640	0.032136
172.857000	3.215930	0.032159
172.803000	3.218130	0.032181
172.746000	3.220240	0.032202
172.687000	3.222300	0.032223
172.628000	3.224300	0.032243
172.568000	3.226250	0.032263
172.510000	3.228160	0.032282
172.449000	3.230000	0.032300
172.389000	3.231860	0.032319
172.331000	3.233760	0.032338
172.273000	3.235620	0.032356
172.217000	3.237450	0.032375
172.156000	3.239270	0.032393
172.096000	3.241090	0.032411
172.036000	3.242890	0.032429
171.977000	3.244680	0.032447
171.918000	3.246410	0.032464
171.856000	3.248170	0.032482
171.793000	3.249950	0.032500
171.728000	3.251740	0.032517
171.662000	3.253550	0.032536
171.594000	3.255390	0.032554
171.526000	3.257290	0.032573
171.457000	3.259310	0.032593
171.386000	3.261420	0.032614
171.312000	3.263660	0.032637
171.237000	3.266160	0.032662
171.160000	3.268680	0.032687
171.080000	3.271360	0.032714
171.000000	3.274150	0.032742
170.917000	3.277110	0.032771
170.833000	3.280200	0.032802
170.748000	3.283420	0.032834
170.660000	3.286750	0.032868
170.571000	3.290140	0.032901
170.480000	3.293640	0.032936
170.385000	3.297220	0.032972
170.289000	3.300830	0.033008
170.190000	3.304500	0.033045
170.089000	3.308210	0.033082
169.988000	3.311930	0.033119
169.885000	3.315680	0.033157
169.781000	3.319410	0.033194
169.679000	3.323130	0.033231
169.577000	3.326820	0.033268
169.474000	3.330480	0.033305
169.371000	3.334130	0.033341
169.267000	3.337710	0.033377
169.162000	3.341240	0.033412
169.057000	3.344720	0.033447
168.953000	3.348150	0.033482
168.846000	3.351510	0.033515
168.738000	3.354790	0.033548
168.630000	3.358020	0.033580
168.518000	3.361140	0.033611
168.403000	3.364180	0.033642
168.287000	3.367150	0.033672
168.168000	3.370050	0.033701
168.049000	3.372870	0.033729
167.929000	3.375650	0.033757
167.807000	3.378390	0.033784
167.683000	3.381100	0.033811
167.554000	3.383770	0.033838
167.418000	3.386400	0.033864
167.279000	3.389040	0.033890
167.137000	3.391660	0.033917
166.992000	3.394290	0.033943
166.845000	3.396820	0.033968
166.697000	3.399470	0.033995
166.549000	3.402120	0.034021
166.400000	3.404750	0.034048
166.251000	3.407380	0.034074
166.101000	3.409980	0.034100
165.950000	3.412570	0.034126
165.799000	3.415140	0.034151
165.648000	3.417710	0.034177
165.496000	3.420260	0.034203
165.343000	3.422800	0.034228
165.191000	3.425310	0.034253
165.040000	3.427820	0.034278
164.889000	3.430310	0.034303
164.738000	3.432800	0.034328
164.588000	3.435250	0.034353
164.438000	3.437750	0.034378
164.289000	3.440080	0.034401
164.140000	3.442540	0.034425
163.990000	3.444990	0.034450
163.842000	3.447430	0.034474
163.693000	3.449880	0.034499
163.542000	3.452310	0.034523
163.388000	3.454750	0.034548
163.236000	3.457230	0.034572
163.085000	3.459690	0.034597
162.934000	3.462170	0.034622
162.783000	3.464680	0.034647
162.632000	3.467260	0.034673
162.481000	3.469880	0.034699
162.330000	3.472580	0.034726
162.179000	3.475360	0.034754
162.027000	3.478210	0.034782
161.875000	3.481130	0.034811
161.724000	3.484110	0.034841
161.573000	3.487090	0.034871
161.424000	3.490190	0.034902
161.276000	3.493360	0.034934
161.128000	3.496590	0.034966
160.979000	3.499900	0.034999
160.830000	3.503340	0.035033
160.682000	3.506770	0.035068
160.529000	3.510230	0.035102
160.373000	3.513710	0.035137
160.219000	3.517200	0.035172
160.067000	3.520690	0.035207
159.915000	3.524170	0.035242
159.763000	3.527640	0.035276
159.610000	3.531130	0.035311
159.455000	3.534660	0.035347
159.298000	3.538160	0.035382
159.137000	3.541640	0.035416
158.973000	3.545120	0.035451
158.806000	3.548560	0.035486
158.642000	3.551970	0.035520
158.477000	3.555360	0.035554
158.313000	3.558630	0.035586
158.151000	3.561810	0.035618
157.989000	3.564870	0.035649
157.826000	3.567700	0.035677
157.664000	3.570500	0.035705
157.502000	3.573180	0.035732
157.340000	3.575740	0.035757
157.181000	3.578130	0.035781
157.023000	3.580370	0.035804
156.864000	3.582460	0.035825
156.706000	3.584410	0.035844
156.549000	3.586230	0.035862
156.395000	3.587940	0.035879
156.241000	3.589490	0.035895
156.090000	3.591030	0.035910
155.943000	3.592320	0.035923
155.800000	3.593790	0.035938
155.658000	3.595250	0.035953
155.519000	3.596720	0.035967
155.381000	3.598210	0.035982
155.243000	3.599740	0.035997
155.103000	3.601290	0.036013
154.963000	3.602880	0.036029
154.822000	3.604460	0.036045
154.681000	3.606110	0.036061
154.539000	3.607760	0.036078
154.397000	3.609410	0.036094
154.253000	3.611050	0.036111
154.109000	3.612670	0.036127
153.966000	3.614200	0.036142
153.822000	3.615800	0.036158
153.676000	3.617430	0.036174
153.529000	3.619080	0.036191
153.382000	3.620760	0.036208
153.236000	3.622480	0.036225
153.090000	3.624240	0.036242
152.944000	3.626090	0.036261
152.796000	3.627920	0.036279
152.648000	3.629830	0.036298
152.500000	3.631780	0.036318
152.353000	3.633790	0.036338
152.207000	3.635800	0.036358
152.064000	3.637780	0.036378
151.919000	3.639790	0.036398
151.774000	3.641750	0.036418
151.627000	3.643690	0.036437
151.478000	3.645580	0.036456
151.328000	3.647440	0.036474
151.177000	3.649240	0.036492
151.026000	3.650970	0.036510
150.876000	3.652690	0.036527
150.726000	3.654350	0.036544
150.577000	3.656000	0.036560
150.430000	3.657490	0.036575
150.284000	3.659090	0.036591
150.137000	3.660720	0.036607
149.988000	3.662350	0.036624
149.839000	3.664000	0.036640
149.690000	3.665670	0.036657
149.542000	3.667370	0.036674
149.395000	3.669060	0.036691
149.253000	3.670780	0.036708
149.115000	3.672510	0.036725
148.978000	3.674210	0.036742
148.838000	3.675870	0.036759
148.699000	3.677470	0.036775
148.561000	3.679050	0.036791
148.423000	3.680580	0.036806
148.287000	3.682040	0.036820
148.154000	3.683460	0.036835
148.025000	3.684810	0.036848
147.898000	3.686100	0.036861
147.771000	3.687320	0.036873
147.643000	3.688430	0.036884
147.514000	3.689520	0.036895
147.383000	3.690550	0.036906
147.249000	3.691450	0.036915
147.112000	3.692430	0.036924
146.975000	3.693400	0.036934
146.838000	3.694420	0.036944
146.699000	3.695400	0.036954
146.560000	3.696380	0.036964
146.421000	3.697350	0.036974
146.280000	3.698310	0.036983
146.142000	3.699220	0.036992
146.002000	3.700130	0.037001
145.864000	3.701020	0.037010
145.726000	3.701890	0.037019
145.590000	3.702740	0.037027
145.455000	3.703580	0.037036
145.321000	3.704390	0.037044
145.186000	3.705170	0.037052
145.054000	3.705930	0.037059
144.920000	3.706570	0.037066
144.787000	3.707280	0.037073
144.656000	3.707980	0.037080
144.526000	3.708610	0.037086
144.394000	3.709330	0.037093
144.264000	3.710050	0.037101
144.136000	3.710750	0.037108
144.007000	3.711490	0.037115
143.878000	3.712260	0.037123
143.749000	3.713060	0.037131
143.621000	3.713850	0.037139
143.492000	3.714680	0.037147
143.364000	3.715490	0.037155
143.236000	3.716320	0.037163
143.110000	3.717150	0.037172
142.982000	3.718000	0.037180
142.855000	3.718850	0.037189
142.728000	3.719700	0.037197
142.602000	3.720550	0.037206
142.477000	3.721530	0.037215
142.350000	3.722460	0.037225
142.222000	3.723330	0.037233
142.094000	3.724390	0.037244
141.965000	3.725240	0.037252
141.837000	3.726100	0.037261
141.711000	3.726930	0.037269
141.585000	3.727730	0.037277
141.462000	3.728520	0.037285
141.339000	3.729300	0.037293
141.217000	3.730060	0.037301
141.096000	3.730810	0.037308
140.976000	3.731550	0.037316
140.856000	3.732300	0.037323
140.735000	3.733050	0.037331
140.612000	3.733820	0.037338
140.487000	3.734610	0.037346
140.360000	3.735670	0.037357
140.234000	3.736470	0.037365
140.108000	3.737270	0.037373
139.982000	3.738060	0.037381
139.855000	3.738840	0.037388
139.728000	3.739600	0.037396
139.601000	3.740340	0.037403
139.473000	3.741040	0.037410
139.344000	3.741760	0.037418
139.216000	3.742420	0.037424
139.089000	3.743030	0.037430
138.962000	3.743590	0.037436
138.836000	3.744110	0.037441
138.708000	3.744600	0.037446
138.580000	3.745040	0.037450
138.451000	3.745460	0.037455
138.321000	3.745860	0.037459
138.189000	3.746260	0.037463
138.058000	3.746690	0.037467
137.925000	3.747100	0.037471
137.794000	3.747540	0.037475
137.663000	3.748010	0.037480
137.534000	3.748500	0.037485
137.408000	3.749020	0.037490
137.283000	3.749710	0.037497
137.158000	3.750270	0.037503
137.033000	3.750790	0.037508
136.910000	3.751270	0.037513
136.785000	3.751690	0.037517
136.659000	3.752050	0.037521
136.533000	3.752340	0.037523
136.405000	3.752530	0.037525
136.275000	3.752670	0.037527
136.144000	3.752860	0.037529
136.009000	3.752890	0.037529
135.874000	3.752920	0.037529
135.738000	3.752940	0.037529
135.602000	3.752990	0.037530
135.462000	3.753030	0.037530
135.326000	3.753110	0.037531
135.188000	3.753240	0.037532
135.049000	3.753400	0.037534
134.912000	3.753610	0.037536
134.774000	3.753850	0.037539
134.637000	3.754190	0.037542
134.498000	3.754530	0.037545
134.361000	3.754880	0.037549
134.225000	3.755330	0.037553
134.090000	3.755670	0.037557
133.956000	3.755980	0.037560
133.822000	3.756240	0.037562
133.689000	3.756460	0.037565
133.556000	3.756640	0.037566
133.420000	3.756770	0.037568
133.282000	3.756680	0.037567
133.141000	3.756780	0.037568
133.000000	3.756850	0.037569
132.855000	3.756930	0.037569
132.710000	3.757020	0.037570
132.565000	3.757130	0.037571
132.420000	3.757290	0.037573
132.275000	3.757460	0.037575
132.130000	3.757700	0.037577
131.987000	3.757980	0.037580
131.845000	3.758380	0.037584
131.703000	3.758720	0.037587
131.562000	3.759090	0.037591
131.421000	3.759510	0.037595
131.283000	3.759860	0.037599
131.147000	3.760210	0.037602
131.008000	3.760530	0.037605
130.869000	3.760830	0.037608
130.729000	3.761050	0.037611
130.589000	3.761270	0.037613
130.452000	3.761480	0.037615
130.315000	3.761670	0.037617
130.177000	3.761860	0.037619
130.038000	3.762040	0.037620
129.899000	3.762310	0.037623
129.757000	3.762540	0.037625
129.615000	3.762780	0.037628
129.472000	3.763040	0.037630
129.327000	3.763310	0.037633
129.183000	3.763460	0.037635
129.038000	3.763750	0.037638
128.893000	3.764040	0.037640
128.747000	3.764330	0.037643
128.600000	3.764610	0.037646
128.454000	3.764850	0.037649
128.307000	3.765100	0.037651
128.158000	3.765350	0.037654
128.010000	3.765620	0.037656
127.861000	3.765850	0.037659
127.711000	3.766090	0.037661
127.561000	3.766320	0.037663
127.412000	3.766560	0.037666
127.264000	3.766800	0.037668
127.118000	3.767030	0.037670
126.973000	3.767250	0.037673
126.827000	3.767450	0.037675
126.682000	3.767460	0.037675
126.537000	3.767670	0.037677
126.392000	3.767880	0.037679
126.249000	3.768090	0.037681
126.106000	3.768310	0.037683
125.962000	3.768530	0.037685
125.820000	3.768780	0.037688
125.680000	3.769010	0.037690
125.540000	3.769100	0.037691
125.403000	3.769330	0.037693
125.266000	3.769590	0.037696
125.128000	3.769880	0.037699
124.992000	3.770200	0.037702
124.855000	3.770560	0.037706
124.718000	3.770930	0.037709
124.582000	3.771310	0.037713
124.446000	3.771700	0.037717
124.310000	3.772070	0.037721
124.175000	3.772400	0.037724
124.039000	3.772740	0.037727
123.904000	3.773040	0.037730
123.767000	3.773270	0.037733
123.630000	3.773480	0.037735
123.494000	3.773670	0.037737
123.356000	3.773800	0.037738
123.220000	3.773790	0.037738
123.082000	3.774000	0.037740
122.945000	3.774220	0.037742
122.810000	3.774470	0.037745
122.677000	3.774750	0.037748
122.546000	3.775080	0.037751
122.414000	3.775440	0.037754
122.284000	3.775800	0.037758
122.155000	3.776120	0.037761
122.025000	3.776570	0.037766
121.895000	3.777000	0.037770
121.765000	3.777440	0.037774
121.634000	3.777820	0.037778
121.500000	3.778200	0.037782
121.365000	3.778520	0.037785
121.229000	3.778770	0.037788
121.093000	3.778920	0.037789
120.958000	3.779060	0.037791
120.819000	3.779190	0.037792
120.678000	3.779300	0.037793
120.539000	3.779400	0.037794
120.399000	3.779520	0.037795
120.260000	3.779660	0.037797
120.123000	3.779860	0.037799
119.985000	3.780140	0.037801
119.847000	3.780420	0.037804
119.708000	3.780710	0.037807
119.571000	3.781010	0.037810
119.434000	3.781310	0.037813
119.299000	3.781790	0.037818
119.164000	3.782080	0.037821
119.030000	3.782370	0.037824
118.894000	3.782620	0.037826
118.757000	3.782860	0.037829
118.620000	3.783060	0.037831
118.482000	3.783200	0.037832
118.343000	3.783280	0.037833
118.206000	3.783370	0.037834
118.067000	3.783460	0.037835
117.931000	3.783540	0.037835
117.796000	3.783640	0.037836
117.660000	3.783780	0.037838
117.526000	3.783920	0.037839
117.394000	3.784080	0.037841
117.261000	3.784280	0.037843
117.129000	3.784480	0.037845
116.996000	3.784700	0.037847
116.863000	3.784950	0.037850
116.729000	3.785160	0.037852
116.595000	3.785380	0.037854
116.461000	3.785580	0.037856
116.326000	3.785750	0.037858
116.189000	3.785810	0.037858
116.051000	3.785820	0.037858
115.913000	3.785880	0.037859
115.775000	3.785930	0.037859
115.637000	3.785980	0.037860
115.499000	3.786020	0.037860
115.360000	3.786090	0.037861
115.221000	3.786180	0.037862
115.083000	3.786290	0.037863
114.945000	3.786400	0.037864
114.807000	3.786530	0.037865
114.671000	3.786680	0.037867
114.537000	3.786850	0.037869
114.402000	3.787050	0.037871
114.266000	3.787210	0.037872
114.128000	3.787400	0.037874
113.990000	3.787630	0.037876
113.851000	3.787860	0.037879
113.711000	3.788070	0.037881
113.572000	3.788290	0.037883
113.433000	3.788510	0.037885
113.295000	3.788740	0.037887
113.156000	3.788980	0.037890
113.019000	3.789230	0.037892
112.883000	3.789540	0.037895
112.747000	3.789790	0.037898
112.611000	3.790010	0.037900
112.475000	3.790210	0.037902
112.339000	3.790340	0.037903
112.203000	3.790480	0.037905
112.067000	3.790620	0.037906
111.932000	3.790870	0.037909
111.797000	3.791000	0.037910
111.663000	3.791110	0.037911
111.527000	3.791190	0.037912
111.392000	3.791240	0.037912
111.255000	3.791310	0.037913
111.119000	3.791400	0.037914
110.984000	3.791500	0.037915
110.848000	3.791600	0.037916
110.714000	3.791730	0.037917
110.579000	3.791860	0.037919
110.445000	3.792010	0.037920
110.311000	3.792160	0.037922
110.179000	3.792330	0.037923
110.044000	3.792470	0.037925
109.910000	3.792590	0.037926
109.774000	3.792700	0.037927
109.638000	3.792930	0.037929
109.501000	3.792940	0.037929
109.362000	3.792910	0.037929
109.225000	3.792860	0.037929
109.088000	3.792940	0.037929
108.949000	3.792870	0.037929
108.811000	3.792790	0.037928
108.673000	3.792780	0.037928
108.537000	3.792750	0.037928
108.402000	3.792770	0.037928
108.267000	3.792830	0.037928
108.134000	3.792900	0.037929
108.000000	3.793030	0.037930
107.866000	3.793210	0.037932
107.731000	3.793400	0.037934
107.597000	3.793610	0.037936
107.462000	3.793890	0.037939
107.327000	3.794120	0.037941
107.193000	3.794350	0.037944
107.060000	3.794540	0.037945
106.925000	3.794700	0.037947
106.789000	3.794800	0.037948
106.652000	3.794870	0.037949
106.515000	3.794850	0.037949
106.378000	3.794750	0.037948
106.239000	3.794700	0.037947
106.100000	3.794670	0.037947
105.964000	3.794670	0.037947
105.826000	3.794720	0.037947
105.691000	3.794840	0.037948
105.556000	3.794980	0.037950
105.421000	3.795170	0.037952
105.286000	3.795390	0.037954
105.152000	3.795650	0.037957
105.018000	3.795930	0.037959
104.884000	3.796230	0.037962
104.750000	3.796580	0.037966
104.615000	3.796850	0.037969
104.479000	3.797080	0.037971
104.341000	3.797300	0.037973
104.203000	3.797450	0.037975
104.065000	3.797510	0.037975
103.929000	3.797570	0.037976
103.795000	3.797620	0.037976
103.662000	3.797610	0.037976
103.530000	3.797600	0.037976
103.397000	3.797680	0.037977
103.265000	3.797720	0.037977
103.131000	3.797790	0.037978
102.997000	3.797860	0.037979
102.864000	3.797970	0.037980
102.729000	3.798090	0.037981
102.593000	3.798310	0.037983
102.459000	3.798490	0.037985
102.324000	3.798670	0.037987
102.187000	3.798850	0.037989
102.052000	3.799010	0.037990
101.916000	3.799140	0.037991
101.779000	3.799240	0.037992
101.642000	3.799300	0.037993
101.505000	3.799360	0.037994
101.371000	3.799410	0.037994
101.237000	3.799450	0.037995
101.104000	3.799480	0.037995
100.971000	3.799520	0.037995
100.838000	3.799520	0.037995
100.705000	3.799530	0.037995
100.572000	3.799510	0.037995
100.440000	3.799440	0.037994
100.308000	3.799360	0.037994
100.174000	3.799300	0.037993
100.040000	3.799220	0.037992
99.907400	3.799140	0.037991
99.774300	3.799050	0.037991
99.641500	3.799000	0.037990
99.509200	3.798940	0.037989
99.377100	3.798820	0.037988
99.245500	3.798770	0.037988
99.113500	3.798730	0.037987
98.980100	3.798710	0.037987
98.848400	3.798760	0.037988
98.717200	3.798810	0.037988
98.587100	3.798830	0.037988
98.456700	3.798870	0.037989
98.326400	3.798890	0.037989
98.197800	3.798880	0.037989
98.068200	3.798870	0.037989
97.938200	3.798880	0.037989
97.807600	3.798850	0.037989
97.676000	3.798790	0.037988
97.545200	3.798730	0.037987
97.413200	3.798510	0.037985
97.281400	3.798420	0.037984
97.149500	3.798340	0.037983
97.016900	3.798280	0.037983
96.884800	3.798230	0.037982
96.752700	3.798210	0.037982
96.621200	3.798240	0.037982
96.489100	3.798300	0.037983
96.357600	3.798390	0.037984
96.227000	3.798530	0.037985
96.097700	3.798670	0.037987
95.968600	3.798830	0.037988
95.841200	3.798990	0.037990
95.712700	3.798990	0.037990
95.584900	3.799120	0.037991
95.456500	3.799220	0.037992
95.327700	3.799270	0.037993
95.196900	3.799070	0.037991
95.065200	3.799090	0.037991
94.932200	3.799060	0.037991
94.798700	3.799040	0.037990
94.665900	3.799000	0.037990
94.532700	3.798970	0.037990
94.400300	3.798970	0.037990
94.267400	3.799030	0.037990
94.134200	3.799130	0.037991
94.001000	3.799310	0.037993
93.865500	3.799460	0.037995
93.729900	3.799700	0.037997
93.592700	3.799970	0.038000
93.455500	3.800270	0.038003
93.317900	3.800570	0.038006
93.180600	3.800900	0.038009
93.042200	3.801200	0.038012
92.903800	3.801460	0.038015
92.766200	3.801720	0.038017
92.627500	3.801900	0.038019
92.487700	3.802040	0.038020
92.347700	3.802120	0.038021
92.207300	3.802190	0.038022
92.067200	3.802240	0.038022
91.925800	3.802300	0.038023
91.785800	3.802370	0.038024
91.645800	3.802390	0.038024
91.505300	3.802470	0.038025
91.364300	3.802570	0.038026
91.222900	3.802690	0.038027
91.082000	3.802840	0.038028
90.941600	3.802980	0.038030
90.801100	3.803150	0.038032
90.659700	3.803320	0.038033
90.517000	3.803480	0.038035
90.373600	3.803610	0.038036
90.228800	3.803750	0.038038
90.084700	3.803850	0.038039
89.941200	3.803840	0.038038
89.795400	3.803850	0.038039
89.650100	3.803830	0.038038
89.505300	3.803790	0.038038
89.360400	3.803800	0.038038
89.215300	3.803730	0.038037
89.070200	3.803650	0.038037
88.924900	3.803630	0.038036
88.782000	3.803620	0.038036
88.636800	3.803620	0.038036
88.492800	3.803650	0.038037
88.346700	3.803710	0.038037
88.200900	3.803790	0.038038
88.055200	3.803870	0.038039
87.906000	3.803950	0.038040
87.756100	3.803870	0.038039
87.608300	3.803960	0.038040
87.461600	3.804040	0.038040
87.316600	3.804090	0.038041
87.172100	3.804160	0.038042
87.028500	3.804240	0.038042
86.885500	3.804360	0.038044
86.742300	3.804480	0.038045
86.599100	3.804590	0.038046
86.456200	3.804710	0.038047
86.313500	3.804770	0.038048
86.170900	3.804860	0.038049
86.028500	3.804930	0.038049
85.886300	3.804950	0.038050
85.745000	3.804970	0.038050
85.603200	3.804990	0.038050
85.460900	3.805000	0.038050
85.318300	3.805010	0.038050
85.174800	3.804990	0.038050
85.031700	3.805000	0.038050
84.887200	3.804970	0.038050
84.743700	3.804990	0.038050
84.601800	3.805030	0.038050
84.459300	3.805090	0.038051
84.317500	3.805190	0.038052
84.176200	3.805310	0.038053
84.033800	3.805420	0.038054
83.892700	3.805550	0.038056
83.751300	3.805670	0.038057
83.610200	3.805780	0.038058
83.469500	3.806010	0.038060
83.328700	3.806000	0.038060
83.187900	3.806050	0.038061
83.047600	3.806090	0.038061
82.908700	3.806120	0.038061
82.770200	3.806130	0.038061
82.631500	3.806110	0.038061
82.492600	3.806130	0.038061
82.352600	3.806150	0.038062
82.212600	3.806170	0.038062
82.071600	3.806230	0.038062
81.931900	3.806320	0.038063
81.792300	3.806450	0.038065
81.653500	3.806590	0.038066
81.515400	3.806780	0.038068
81.376900	3.807000	0.038070
81.239700	3.807240	0.038072
81.104300	3.807710	0.038077
80.969400	3.807900	0.038079
80.834900	3.808090	0.038081
80.700300	3.808260	0.038083
80.565900	3.808380	0.038084
80.430800	3.808510	0.038085
80.294200	3.808350	0.038084
80.158000	3.808330	0.038083
80.022300	3.808290	0.038083
79.885100	3.808220	0.038082
79.747900	3.808180	0.038082
79.611600	3.808110	0.038081
79.475400	3.808050	0.038081
79.338100	3.808020	0.038080
79.201800	3.808030	0.038080
79.065700	3.808100	0.038081
78.929800	3.808200	0.038082
78.794500	3.808330	0.038083
78.660600	3.808440	0.038084
78.528000	3.808580	0.038086
78.395700	3.808710	0.038087
78.261700	3.808810	0.038088
78.129100	3.808880	0.038089
77.994700	3.808930	0.038089
77.862100	3.808820	0.038088
77.729400	3.808770	0.038088
77.595300	3.808750	0.038088
77.463700	3.808680	0.038087
77.333500	3.808600	0.038086
77.200700	3.808520	0.038085
77.068000	3.808470	0.038085
76.934400	3.808450	0.038085
76.798800	3.808440	0.038084
76.664400	3.808440	0.038084
76.529600	3.808490	0.038085
76.395400	3.808590	0.038086
76.260000	3.808710	0.038087
76.124200	3.808850	0.038089
75.989200	3.809000	0.038090
75.855700	3.809150	0.038092
75.721900	3.809290	0.038093
75.586400	3.809420	0.038094
75.449700	3.809520	0.038095
75.312100	3.809620	0.038096
75.174800	3.809700	0.038097
75.037800	3.809720	0.038097
74.900400	3.809730	0.038097
74.762300	3.809710	0.038097
74.625600	3.809680	0.038097
74.488800	3.809660	0.038097
74.352400	3.809620	0.038096
74.216300	3.809630	0.038096
74.079300	3.809670	0.038097
73.942300	3.809910	0.038099
73.807800	3.809970	0.038100
73.671200	3.810060	0.038101
73.535200	3.810150	0.038102
73.400500	3.810220	0.038102
73.267300	3.810300	0.038103
73.135100	3.810360	0.038104
73.001100	3.810390	0.038104
72.866300	3.810450	0.038105
72.731400	3.810500	0.038105
72.597100	3.810590	0.038106
72.463700	3.810650	0.038107
72.329700	3.810730	0.038107
72.198800	3.810810	0.038108
72.066300	3.810910	0.038109
71.933000	3.811030	0.038110
71.799900	3.811050	0.038111
71.666500	3.811110	0.038111
71.532700	3.811190	0.038112
71.399000	3.811230	0.038112
71.265200	3.811270	0.038113
71.129500	3.811320	0.038113
70.990600	3.811350	0.038114
70.851000	3.811370	0.038114
70.710200	3.811400	0.038114
70.569100	3.811360	0.038114
70.427700	3.811370	0.038114
70.287500	3.811380	0.038114
70.148900	3.811390	0.038114
70.010000	3.811420	0.038114
69.872300	3.811450	0.038115
69.735700	3.811600	0.038116
69.599000	3.811670	0.038117
69.462900	3.811760	0.038118
69.327600	3.811850	0.038119
69.192300	3.811950	0.038120
69.057500	3.812050	0.038121
68.921800	3.812090	0.038121
68.786300	3.812080	0.038121
68.649300	3.812040	0.038120
68.511600	3.811970	0.038120
68.372300	3.811890	0.038119
68.231800	3.811710	0.038117
68.093100	3.811580	0.038116
67.954500	3.811460	0.038115
67.815700	3.811360	0.038114
67.674100	3.811280	0.038113
67.530100	3.811230	0.038112
67.382800	3.811210	0.038112
67.232300	3.811230	0.038112
67.078800	3.811280	0.038113
66.926300	3.811360	0.038114
66.772800	3.811400	0.038114
66.619400	3.811700	0.038117
66.467700	3.811810	0.038118
66.312500	3.811890	0.038119
66.157200	3.811950	0.038120
66.001200	3.811970	0.038120
65.846800	3.811990	0.038120
65.692400	3.811920	0.038119
65.535600	3.811820	0.038118
65.377500	3.811680	0.038117
65.221300	3.811740	0.038117
65.066000	3.811580	0.038116
64.911800	3.811410	0.038114
64.758600	3.811250	0.038113
64.605900	3.811130	0.038111
64.452800	3.811050	0.038111
64.301600	3.811000	0.038110
64.151900	3.811080	0.038111
64.002600	3.811140	0.038111
63.853100	3.811300	0.038113
63.702600	3.811390	0.038114
63.551000	3.811470	0.038115
63.400600	3.811550	0.038116
63.249500	3.811600	0.038116
63.095700	3.811610	0.038116
62.942400	3.811580	0.038116
62.787600	3.811510	0.038115
62.630500	3.811400	0.038114
62.470800	3.811290	0.038113
62.310200	3.811140	0.038111
62.149900	3.810970	0.038110
61.991400	3.810760	0.038108
61.833200	3.810550	0.038106
61.675100	3.810350	0.038104
61.516600	3.810180	0.038102
61.359100	3.810050	0.038101
61.198900	3.809950	0.038100
61.039300	3.809840	0.038098
60.881700	3.809830	0.038098
60.724700	3.809850	0.038099
60.569100	3.809880	0.038099
60.415600	3.809910	0.038099
60.262900	3.809960	0.038100
60.109700	3.809990	0.038100
59.959000	3.810030	0.038100
59.810200	3.810040	0.038100
59.663500	3.810000	0.038100
59.519300	3.809940	0.038099
59.375800	3.809820	0.038098
59.231800	3.809690	0.038097
59.084200	3.809570	0.038096
58.936400	3.809420	0.038094
58.788900	3.809300	0.038093
58.640500	3.809080	0.038091
58.494300	3.808950	0.038090
58.352300	3.808870	0.038089
58.209100	3.808790	0.038088
58.066300	3.808760	0.038088
57.926200	3.808720	0.038087
57.786700	3.808710	0.038087
57.648700	3.808690	0.038087
57.512700	3.808680	0.038087
57.379000	3.808670	0.038087
57.246100	3.808660	0.038087
57.114500	3.808730	0.038087
56.984400	3.808770	0.038088
56.853500	3.808810	0.038088
56.721700	3.808870	0.038089
56.587600	3.808870	0.038089
56.457100	3.808920	0.038089
56.330600	3.809010	0.038090
56.208500	3.809110	0.038091
56.086800	3.809020	0.038090
55.966500	3.809180	0.038092
55.846000	3.809330	0.038093
55.727700	3.809500	0.038095
55.610600	3.809740	0.038097
55.495000	3.810030	0.038100
55.383900	3.810350	0.038104
55.275600	3.810680	0.038107
55.166000	3.811030	0.038110
55.057400	3.811370	0.038114
54.949300	3.811700	0.038117
54.842700	3.812000	0.038120
54.737300	3.812310	0.038123
54.633200	3.812630	0.038126
54.531200	3.812940	0.038129
54.430300	3.813260	0.038133
54.327800	3.813570	0.038136
54.223300	3.813860	0.038139
54.116800	3.814210	0.038142
54.005600	3.814510	0.038145
53.892800	3.814740	0.038147
53.778800	3.814930	0.038149
53.663400	3.815120	0.038151
53.543100	3.815280	0.038153
53.423900	3.815410	0.038154
53.306700	3.815520	0.038155
53.187800	3.815620	0.038156
53.069400	3.815700	0.038157
52.952200	3.815790	0.038158
52.836500	3.815880	0.038159
52.721900	3.816100	0.038161
52.608600	3.816150	0.038162
52.496000	3.816180	0.038162
52.385200	3.816230	0.038162
52.275200	3.816240	0.038162
52.165800	3.816350	0.038164
52.058000	3.816410	0.038164
51.949100	3.816470	0.038165
51.841700	3.816250	0.038163
51.737400	3.816200	0.038162
51.636000	3.816130	0.038161
51.535400	3.816030	0.038160
51.435800	3.815890	0.038159
51.338700	3.815700	0.038157
51.240400	3.815490	0.038155
51.141700	3.815170	0.038152
51.043200	3.814910	0.038149
50.941400	3.814660	0.038147
50.839900	3.814440	0.038144
50.736600	3.814450	0.038145
50.633500	3.814290	0.038143
50.530100	3.814180	0.038142
50.428000	3.814120	0.038141
50.328900	3.814100	0.038141
50.231100	3.814120	0.038141
50.134900	3.814160	0.038142
50.041200	3.814220	0.038142
49.948300	3.814310	0.038143
49.856300	3.814380	0.038144
49.768300	3.814500	0.038145
49.682700	3.814610	0.038146
49.596200	3.814720	0.038147
49.510800	3.814810	0.038148
49.425200	3.814880	0.038149
49.337200	3.814930	0.038149
49.248700	3.814950	0.038150
49.160600	3.814950	0.038150
49.072900	3.814930	0.038149
48.983900	3.814900	0.038149
48.895300	3.814860	0.038149
48.807100	3.814830	0.038148
48.721800	3.814800	0.038148
48.635900	3.814770	0.038148
48.548400	3.814760	0.038148
48.460300	3.814750	0.038148
48.376000	3.814750	0.038148
48.293100	3.814820	0.038148
48.211700	3.814940	0.038149
48.128900	3.815140	0.038151
48.046700	3.815410	0.038154
47.964100	3.815770	0.038158
47.880000	3.816240	0.038162
47.793300	3.816680	0.038167
47.710700	3.817120	0.038171
47.628000	3.817580	0.038176
47.546200	3.818010	0.038180
47.468300	3.818440	0.038184
47.390100	3.818860	0.038189
47.311000	3.819250	0.038193
47.232000	3.819630	0.038196
47.151500	3.819990	0.038200
47.073400	3.820320	0.038203
46.997800	3.820630	0.038206
46.924400	3.820920	0.038209
46.855100	3.821230	0.038212
46.787200	3.821490	0.038215
46.720900	3.821790	0.038218
46.657300	3.822030	0.038220
46.602000	3.822250	0.038223
46.549900	3.822460	0.038225
46.496600	3.822840	0.038228
46.448300	3.823020	0.038230
46.402500	3.823180	0.038232
46.356200	3.823270	0.038233
46.307900	3.823300	0.038233
46.260800	3.823230	0.038232
46.214100	3.823100	0.038231
46.167700	3.822900	0.038229
46.121200	3.822650	0.038227
46.072200	3.822340	0.038223
46.021200	3.821960	0.038220
45.969100	3.821540	0.038215
45.920200	3.821060	0.038211
45.871900	3.820540	0.038205
45.824600	3.819990	0.038200
45.776300	3.819410	0.038194
45.727100	3.818800	0.038188
45.677000	3.818180	0.038182
45.625500	3.817560	0.038176
45.574300	3.816930	0.038169
45.523500	3.816340	0.038163
45.475900	3.815760	0.038158
45.431900	3.815160	0.038152
45.387900	3.814590	0.038146
45.342800	3.814080	0.038141
45.296400	3.813620	0.038136
45.251000	3.813220	0.038132
45.206000	3.812880	0.038129
45.163500	3.812610	0.038126
45.121400	3.812410	0.038124
45.078300	3.812150	0.038122
45.034700	3.812150	0.038122
44.988600	3.812270	0.038123
44.939500	3.812470	0.038125
44.887700	3.812760	0.038128
44.834200	3.813060	0.038131
44.780900	3.813450	0.038135
44.726900	3.813870	0.038139
44.674300	3.814320	0.038143
44.622400	3.814810	0.038148
44.569900	3.815300	0.038153
44.519600	3.815820	0.038158
44.468800	3.816330	0.038163
44.420700	3.816850	0.038169
44.372000	3.817350	0.038174
44.324400	3.817830	0.038178
44.278300	3.818320	0.038183
44.233200	3.818790	0.038188
44.191600	3.819230	0.038192
44.151500	3.819410	0.038194
44.111600	3.819770	0.038198
44.073200	3.820040	0.038200
44.035900	3.820260	0.038203
43.999200	3.820420	0.038204
43.961700	3.820510	0.038205
43.923900	3.820580	0.038206
43.886300	3.820590	0.038206
43.851700	3.820580	0.038206
43.815200	3.820550	0.038206
43.779600	3.820490	0.038205
43.743700	3.820430	0.038204
43.704100	3.820350	0.038204
43.663400	3.820290	0.038203
43.621900	3.820230	0.038202
43.579600	3.820180	0.038202
43.536400	3.820160	0.038202
43.493400	3.820140	0.038201
43.450600	3.820130	0.038201
43.410200	3.820070	0.038201
43.370200	3.820070	0.038201
43.330200	3.820090	0.038201
43.289400	3.820110	0.038201
43.248900	3.820170	0.038202
43.205900	3.820220	0.038202
43.160800	3.820290	0.038203
43.115700	3.820370	0.038204
43.068700	3.820400	0.038204
43.020000	3.820380	0.038204
42.975400	3.820280	0.038203
42.933500	3.820110	0.038201
42.891700	3.819850	0.038199
42.850000	3.819550	0.038196
42.806500	3.819200	0.038192
42.763500	3.818830	0.038188
42.724700	3.818420	0.038184
42.687600	3.818000	0.038180
42.651600	3.817590	0.038176
42.613700	3.817160	0.038172
42.575300	3.816760	0.038168
42.537500	3.816390	0.038164
42.497100	3.816040	0.038160
42.458700	3.815730	0.038157
42.424200	3.815460	0.038155
42.386900	3.815320	0.038153
42.350800	3.815120	0.038151
42.314900	3.815010	0.038150
42.276400	3.814950	0.038150
42.239800	3.814910	0.038149
42.202200	3.814860	0.038149
42.168900	3.814820	0.038148
42.136300	3.814790	0.038148
42.103400	3.814750	0.038148
42.069500	3.814720	0.038147
42.033700	3.814690	0.038147
41.996700	3.814670	0.038147
41.959800	3.814670	0.038147
41.920300	3.814700	0.038147
41.881300	3.814760	0.038148
41.842100	3.814850	0.038149
41.801800	3.814990	0.038150
41.760000	3.815190	0.038152
41.717900	3.815440	0.038154
41.676100	3.815740	0.038157
41.633900	3.816070	0.038161
41.592700	3.816460	0.038165
41.552100	3.816850	0.038169
41.511200	3.817280	0.038173
41.471500	3.817760	0.038178
41.431500	3.818110	0.038181
41.390300	3.818580	0.038186
41.350600	3.819080	0.038191
41.311700	3.819620	0.038196
41.273800	3.820280	0.038203
41.235300	3.820900	0.038209
41.197700	3.821490	0.038215
41.160300	3.822030	0.038220
41.123100	3.822520	0.038225
41.085700	3.822940	0.038229
41.049700	3.823280	0.038233
41.014000	3.823550	0.038236
40.979200	3.823710	0.038237
40.944400	3.823770	0.038238
40.907600	3.823710	0.038237
40.870900	3.823530	0.038235
40.833400	3.823240	0.038232
40.794800	3.822870	0.038229
40.755000	3.822410	0.038224
40.717900	3.821890	0.038219
40.680600	3.821340	0.038213
40.644700	3.820760	0.038208
40.611400	3.820170	0.038202
40.578200	3.819570	0.038196
40.545400	3.818930	0.038189
40.511300	3.818360	0.038184
40.478100	3.817820	0.038178
40.444000	3.817350	0.038174
40.410500	3.816860	0.038169
40.377200	3.816440	0.038164
40.344000	3.816060	0.038161
40.309300	3.815750	0.038158
40.273900	3.815490	0.038155
40.240300	3.815300	0.038153
40.208600	3.815150	0.038152
40.175500	3.815040	0.038150
40.143400	3.815000	0.038150
40.112100	3.814960	0.038150
40.081900	3.814980	0.038150
40.052800	3.815020	0.038150
40.024400	3.815080	0.038151
39.993900	3.815170	0.038152
39.964200	3.815250	0.038153
39.933400	3.815350	0.038154
39.904700	3.815430	0.038154
39.875100	3.815510	0.038155
39.844900	3.815580	0.038156
39.818000	3.815640	0.038156
39.789500	3.815700	0.038157
39.758400	3.815760	0.038158
39.729600	3.815850	0.038159
39.699700	3.815920	0.038159
39.669800	3.815980	0.038160
39.641800	3.816070	0.038161
39.612500	3.816130	0.038161
39.583800	3.816220	0.038162
39.554000	3.816320	0.038163
39.524100	3.816440	0.038164
39.496800	3.816580	0.038166
39.470800	3.816760	0.038168
39.445000	3.816970	0.038170
39.420300	3.817210	0.038172
39.396900	3.817480	0.038175
39.375200	3.817770	0.038178
39.353400	3.818070	0.038181
39.330900	3.818360	0.038184
39.309800	3.818670	0.038187
39.289700	3.818990	0.038190
39.269600	3.819280	0.038193
39.249500	3.819600	0.038196
39.230200	3.819870	0.038199
39.211200	3.820120	0.038201
39.193700	3.820350	0.038204
39.175900	3.820540	0.038205
39.157800	3.820700	0.038207
39.139700	3.820820	0.038208
39.124100	3.820890	0.038209
39.109700	3.820880	0.038209
39.091600	3.820850	0.038209
39.072400	3.820820	0.038208
39.053400	3.820770	0.038208
39.031800	3.820710	0.038207
39.008100	3.820550	0.038206
38.982500	3.820480	0.038205
38.956600	3.820390	0.038204
38.928200	3.820300	0.038203
38.899500	3.820240	0.038202
38.869400	3.820190	0.038202
38.837600	3.820170	0.038202
38.805300	3.820160	0.038202
38.773900	3.820170	0.038202
38.744200	3.820210	0.038202
38.717000	3.820240	0.038202
38.692600	3.820290	0.038203
38.667800	3.820310	0.038203
38.643900	3.820310	0.038203
38.618500	3.820280	0.038203
38.592400	3.820240	0.038202
38.566800	3.820170	0.038202
38.542700	3.820030	0.038200
38.519400	3.820000	0.038200
38.497200	3.819680	0.038197
38.476900	3.819400	0.038194
38.458000	3.819080	0.038191
38.439900	3.818640	0.038186
38.423500	3.818200	0.038182
38.410600	3.817760	0.038178
38.399300	3.817320	0.038173
38.388700	3.816870	0.038169
38.375900	3.816430	0.038164
38.362400	3.816000	0.038160
38.345100	3.815580	0.038156
38.324700	3.815190	0.038152
38.301900	3.814850	0.038149
38.278600	3.814530	0.038145
38.251900	3.814270	0.038143
38.224100	3.814070	0.038141
38.195500	3.813920	0.038139
38.167300	3.813840	0.038138
38.136700	3.813830	0.038138
38.108200	3.813870	0.038139
38.079200	3.813990	0.038140
38.051000	3.814140	0.038141
38.024400	3.814330	0.038143
37.998000	3.814590	0.038146
37.972200	3.814810	0.038148
37.946300	3.815040	0.038150
37.921400	3.815260	0.038153
37.895800	3.815470	0.038155
37.870900	3.815640	0.038156
37.846200	3.815780	0.038158
37.821900	3.815950	0.038160
37.798600	3.816070	0.038161
37.773800	3.816170	0.038162
37.751800	3.816260	0.038163
37.730100	3.816350	0.038164
37.709800	3.816420	0.038164
37.689300	3.816500	0.038165
37.669000	3.816570	0.038166
37.651100	3.816630	0.038166
37.633200	3.816690	0.038167
37.615800	3.816740	0.038167
37.598900	3.816790	0.038168
37.581800	3.816840	0.038168
37.565800	3.816900	0.038169
37.550800	3.816950	0.038170
37.535600	3.817010	0.038170
37.518600	3.817090	0.038171
37.500900	3.817180	0.038172
37.483700	3.817280	0.038173
37.466400	3.817430	0.038174
37.450100	3.817570	0.038176
37.432600	3.817700	0.038177
37.418000	3.817910	0.038179
37.403400	3.818020	0.038180
37.386200	3.818110	0.038181
37.369700	3.818200	0.038182
37.354800	3.818300	0.038183
37.339800	3.818390	0.038184
37.321700	3.818450	0.038185
37.303200	3.818490	0.038185
37.284800	3.818500	0.038185
37.268400	3.818490	0.038185
37.253600	3.818460	0.038185
37.239000	3.818420	0.038184
37.223900	3.818370	0.038184
37.206700	3.818310	0.038183
37.188300	3.818230	0.038182
37.170100	3.818160	0.038182
37.153100	3.818090	0.038181
37.135200	3.818020	0.038180
37.118500	3.817950	0.038180
37.103200	3.817880	0.038179
37.087800	3.817810	0.038178
37.070900	3.817740	0.038177
37.054700	3.817580	0.038176
37.036500	3.817480	0.038175
37.017900	3.817660	0.038177
36.999100	3.817590	0.038176
36.978800	3.817530	0.038175
36.960100	3.817500	0.038175
36.939600	3.817500	0.038175
36.919100	3.817610	0.038176
36.899200	3.817660	0.038177
36.879300	3.817740	0.038177
36.858300	3.817850	0.038179
36.841100	3.817950	0.038180
36.826500	3.818030	0.038180
36.813600	3.818090	0.038181
36.802700	3.818130	0.038181
36.797800	3.818150	0.038182
36.792200	3.818130	0.038181
36.786900	3.818100	0.038181
36.780700	3.818040	0.038180
36.774400	3.817990	0.038180
36.766300	3.817950	0.038180
36.755300	3.817910	0.038179
36.744100	3.817880	0.038179
36.734600	3.817860	0.038179
36.722500	3.817830	0.038178
36.710200	3.817820	0.038178
36.699000	3.817950	0.038180
36.687800	3.817980	0.038180
36.677900	3.818000	0.038180
36.668100	3.817970	0.038180
36.662500	3.817990	0.038180
36.656300	3.818010	0.038180
36.650500	3.818050	0.038181
36.644700	3.818030	0.038180
36.635600	3.818080	0.038181
36.627900	3.818170	0.038182
36.618900	3.818290	0.038183
36.609700	3.818460	0.038185
36.601500	3.818620	0.038186
36.592500	3.818830	0.038188
36.585600	3.819030	0.038190
36.578500	3.819220	0.038192
36.569400	3.819390	0.038194
36.560800	3.819550	0.038196
36.553000	3.819670	0.038197
36.540200	3.819760	0.038198
36.526700	3.819820	0.038198
36.512100	3.819860	0.038199
36.497200	3.819870	0.038199
36.481800	3.819870	0.038199
36.466600	3.819860	0.038199
36.450900	3.819830	0.038198
36.434600	3.819770	0.038198
36.419000	3.819710	0.038197
36.404300	3.819810	0.038198
36.391800	3.819720	0.038197
36.380600	3.819580	0.038196
36.370500	3.819470	0.038195
36.363100	3.819360	0.038194
36.358700	3.819270	0.038193
36.357100	3.819180	0.038192
36.356200	3.819100	0.038191
36.354600	3.819010	0.038190
36.352800	3.818930	0.038189
36.354000	3.818870	0.038189
36.354600	3.818840	0.038188
36.356700	3.818830	0.038188
36.359400	3.818860	0.038189
36.361500	3.818900	0.038189
36.362200	3.818970	0.038190
36.364100	3.819070	0.038191
36.365500	3.819180	0.038192
36.366200	3.819300	0.038193
36.367700	3.819400	0.038194
36.367400	3.819500	0.038195
36.367400	3.819580	0.038196
36.367100	3.819630	0.038196
36.366400	3.819670	0.038197
36.365200	3.819600	0.038196
36.364100	3.819620	0.038196
36.361100	3.819620	0.038196
36.358200	3.819610	0.038196
36.353600	3.819570	0.038196
36.347600	3.819510	0.038195
36.342700	3.819440	0.038194
36.338400	3.819370	0.038194
36.332700	3.819300	0.038193
36.327600	3.819240	0.038192
36.322400	3.819170	0.038192
36.315400	3.819120	0.038191
36.305000	3.819070	0.038191
36.296200	3.819030	0.038190
36.288100	3.818960	0.038190
36.281400	3.818920	0.038189
36.275300	3.818890	0.038189
36.270600	3.818890	0.038189
36.267200	3.818890	0.038189
36.263400	3.818930	0.038189
36.256400	3.819010	0.038190
36.251100	3.819110	0.038191
36.245900	3.819230	0.038192
36.239700	3.819390	0.038194
36.232400	3.819280	0.038193
36.222900	3.819410	0.038194
36.211700	3.819510	0.038195
36.196600	3.819570	0.038196
36.181400	3.819590	0.038196
36.166100	3.819760	0.038198
36.151200	3.819700	0.038197
36.138500	3.819600	0.038196
36.125000	3.819470	0.038195
36.113200	3.819340	0.038193
36.099900	3.819230	0.038192
36.087300	3.819090	0.038191
36.076400	3.818950	0.038190
36.063700	3.818800	0.038188
36.051700	3.818640	0.038186
36.041900	3.818480	0.038185
36.032400	3.818310	0.038183
36.021600	3.818140	0.038181
36.013800	3.817970	0.038180
36.006500	3.817810	0.038178
36.001200	3.817670	0.038177
35.996200	3.817540	0.038175
35.992400	3.817440	0.038174
35.989500	3.817370	0.038174
35.987600	3.817330	0.038173
35.986800	3.817320	0.038173
35.985800	3.817340	0.038173
35.984100	3.817450	0.038175
35.982100	3.817520	0.038175
35.979300	3.817590	0.038176
35.975400	3.817650	0.038177
35.970100	3.817820	0.038178
35.963900	3.817900	0.038179
35.956700	3.817950	0.038180
35.948700	3.817910	0.038179
35.939600	3.817910	0.038179
35.931800	3.817920	0.038179
35.922100	3.817910	0.038179
35.912800	3.817890	0.038179
35.903800	3.817860	0.038179
35.896000	3.817820	0.038178
35.887400	3.817790	0.038178
35.879800	3.817750	0.038178
35.871200	3.817710	0.038177
35.864800	3.817650	0.038177
35.858300	3.817610	0.038176
35.851300	3.817570	0.038176
35.845700	3.817520	0.038175
35.839900	3.817470	0.038175
35.833300	3.817430	0.038174
35.827200	3.817390	0.038174
35.820600	3.817350	0.038174
35.814600	3.817130	0.038171
35.808200	3.817090	0.038171
35.801600	3.817050	0.038171
35.794900	3.816980	0.038170
35.788400	3.816920	0.038169
35.781900	3.816830	0.038168
35.775800	3.816730	0.038167
35.769300	3.816630	0.038166
35.762200	3.816550	0.038166
35.755500	3.816470	0.038165
35.749200	3.816390	0.038164
35.741700	3.816310	0.038163
35.735900	3.816250	0.038163
35.729100	3.816190	0.038162
35.720400	3.816170	0.038162
35.714100	3.816170	0.038162
35.708500	3.816180	0.038162
35.703000	3.816210	0.038162
35.697100	3.816260	0.038163
35.692100	3.816350	0.038164
35.687100	3.816450	0.038165
35.684300	3.816570	0.038166
35.683000	3.816730	0.038167
35.682100	3.816900	0.038169
35.683500	3.817090	0.038171
35.686600	3.817290	0.038173
35.690600	3.817490	0.038175
35.695400	3.817680	0.038177
35.701100	3.817840	0.038178
35.707000	3.818000	0.038180
35.713200	3.818130	0.038181
35.720000	3.818250	0.038183
35.725000	3.818350	0.038184
35.732600	3.818420	0.038184
35.739700	3.818480	0.038185
35.744900	3.818520	0.038185
35.752700	3.818540	0.038185
35.761100	3.818550	0.038186
35.770400	3.818580	0.038186
35.779500	3.818560	0.038186
35.789400	3.818540	0.038185
35.800800	3.818500	0.038185
35.814800	3.818450	0.038185
35.830300	3.818390	0.038184
35.848700	3.818320	0.038183
35.869200	3.818250	0.038183
35.890500	3.818170	0.038182
35.911000	3.818090	0.038181
35.933200	3.818030	0.038180
35.956800	3.817960	0.038180
35.982200	3.817890	0.038179
36.008500	3.817820	0.038178
36.036400	3.817740	0.038177
36.065500	3.817470	0.038175
36.096600	3.817400	0.038174
36.129500	3.817310	0.038173
36.163100	3.817200	0.038172
36.198900	3.817060	0.038171
36.236700	3.816900	0.038169
36.275200	3.816720	0.038167
36.314800	3.816540	0.038165
36.356100	3.816370	0.038164
36.398600	3.816200	0.038162
36.442600	3.816020	0.038160
36.486500	3.815870	0.038159
36.532300	3.815740	0.038157
36.581000	3.815620	0.038156
36.630600	3.815540	0.038155
36.682000	3.815480	0.038155
36.736200	3.815450	0.038155
36.793800	3.815440	0.038154
36.852700	3.815420	0.038154
36.913900	3.815460	0.038155
36.978300	3.815440	0.038154
37.045300	3.815400	0.038154
37.113900	3.815330	0.038153
37.182200	3.815330	0.038153
37.253400	3.815270	0.038153
37.326400	3.815200	0.038152
37.399600	3.815100	0.038151
37.474300	3.815000	0.038150
37.550100	3.814910	0.038149
37.627000	3.814880	0.038149
37.704800	3.814770	0.038148
37.783800	3.814660	0.038147
37.865000	3.814570	0.038146
37.948100	3.814520	0.038145
38.031100	3.814500	0.038145
38.115500	3.814530	0.038145
38.201000	3.814600	0.038146
38.284700	3.814720	0.038147
38.368200	3.814890	0.038149
38.453100	3.815100	0.038151
38.540100	3.815360	0.038154
38.627600	3.815670	0.038157
38.717700	3.816020	0.038160
38.806600	3.816420	0.038164
38.895200	3.816850	0.038169
38.986000	3.817290	0.038173
39.075700	3.817750	0.038178
39.166100	3.818200	0.038182
39.255700	3.818630	0.038186
39.346300	3.819040	0.038190
39.436200	3.819430	0.038194
39.526300	3.819790	0.038198
39.614900	3.820130	0.038201
39.703100	3.820450	0.038205
39.790800	3.820730	0.038207
39.877800	3.821010	0.038210
39.965400	3.821230	0.038212
40.054300	3.821430	0.038214
40.143000	3.821610	0.038216
40.232600	3.821740	0.038217
40.323400	3.821840	0.038218
40.415400	3.821900	0.038219
40.508100	3.821910	0.038219
40.600500	3.821820	0.038218
40.692800	3.821770	0.038218
40.785900	3.821710	0.038217
40.877500	3.821620	0.038216
40.967200	3.821520	0.038215
41.057600	3.821390	0.038214
41.147800	3.821220	0.038212
41.237400	3.821030	0.038210
41.328300	3.820810	0.038208
41.418800	3.820570	0.038206
41.511300	3.820320	0.038203
41.604300	3.820050	0.038201
41.697300	3.819780	0.038198
41.791000	3.819490	0.038195
41.884800	3.819200	0.038192
41.979700	3.818920	0.038189
42.074200	3.818620	0.038186
42.169200	3.818320	0.038183
42.263400	3.818020	0.038180
42.357600	3.817710	0.038177
42.451100	3.817400	0.038174
42.544400	3.817090	0.038171
42.638100	3.816750	0.038168
42.734000	3.816430	0.038164
42.827000	3.816090	0.038161
42.919300	3.815740	0.038157
43.008600	3.815360	0.038154
43.096800	3.814970	0.038150
43.183500	3.814570	0.038146
43.267900	3.814140	0.038141
43.352800	3.813740	0.038137
43.438300	3.813380	0.038134
43.522600	3.813040	0.038130
43.604600	3.812760	0.038128
43.686800	3.812490	0.038125
43.771100	3.812300	0.038123
43.853700	3.812130	0.038121
43.936200	3.812010	0.038120
44.018400	3.811930	0.038119
44.101200	3.811910	0.038119
44.184000	3.811930	0.038119
44.267100	3.812000	0.038120
44.349400	3.812100	0.038121
44.432300	3.812250	0.038123
44.515500	3.812440	0.038124
44.598800	3.812660	0.038127
44.681500	3.812920	0.038129
44.765200	3.813210	0.038132
44.849800	3.813520	0.038135
44.937000	3.813840	0.038138
45.025300	3.814180	0.038142
45.113400	3.814520	0.038145
45.200300	3.814850	0.038149
45.289100	3.815180	0.038152
45.375100	3.815490	0.038155
45.460200	3.815790	0.038158
45.546200	3.816040	0.038160
45.632600	3.816330	0.038163
45.719600	3.816630	0.038166
45.807200	3.816910	0.038169
45.896600	3.817120	0.038171
45.985100	3.817360	0.038174
46.074800	3.817600	0.038176
46.165600	3.817850	0.038179
46.257400	3.818110	0.038181
46.350700	3.818370	0.038184
46.445900	3.818630	0.038186
46.541400	3.818900	0.038189
46.636100	3.819150	0.038192
46.730800	3.819370	0.038194
46.825500	3.819540	0.038195
46.921100	3.819670	0.038197
47.015900	3.819750	0.038198
47.110100	3.819760	0.038198
47.204400	3.819720	0.038197
47.298500	3.819630	0.038196
47.391800	3.819490	0.038195
47.484700	3.819270	0.038193
47.577200	3.819010	0.038190
47.669800	3.818720	0.038187
47.761400	3.818370	0.038184
47.853900	3.818020	0.038180
47.944500	3.817660	0.038177
48.034000	3.817300	0.038173
48.122400	3.816980	0.038170
48.208000	3.816690	0.038167
48.293600	3.816450	0.038165
48.379200	3.816260	0.038163
48.464000	3.816080	0.038161
48.548100	3.815950	0.038160
48.632900	3.815830	0.038158
48.718600	3.815740	0.038157
48.805400	3.815400	0.038154
48.894000	3.815350	0.038154
48.982900	3.815300	0.038153
49.074200	3.815270	0.038153
49.164400	3.815250	0.038153
49.252900	3.815230	0.038152
49.340400	3.815190	0.038152
49.430700	3.815160	0.038152
49.520700	3.815190	0.038152
49.614600	3.815130	0.038151
49.710000	3.815040	0.038150
49.806100	3.814910	0.038149
49.903100	3.814760	0.038148
49.998400	3.814590	0.038146
50.093500	3.814410	0.038144
50.186800	3.814240	0.038142
50.281400	3.814050	0.038141
50.374200	3.813880	0.038139
50.468300	3.813700	0.038137
50.562600	3.813510	0.038135
50.658100	3.813350	0.038134
50.754800	3.813190	0.038132
50.851800	3.813040	0.038130
50.948100	3.812910	0.038129
51.045500	3.812800	0.038128
51.144900	3.812720	0.038127
51.243400	3.812650	0.038127
51.342900	3.812610	0.038126
51.444700	3.812600	0.038126
51.548500	3.812620	0.038126
51.653000	3.812680	0.038127
51.758900	3.812770	0.038128
51.864100	3.812940	0.038129
51.969300	3.813150	0.038132
52.075100	3.813440	0.038134
52.182200	3.813790	0.038138
52.289200	3.814190	0.038142
52.397400	3.814690	0.038147
52.509700	3.815200	0.038152
52.621200	3.815730	0.038157
52.731600	3.816240	0.038162
52.846100	3.816750	0.038168
52.960900	3.817250	0.038173
53.075600	3.817720	0.038177
53.192400	3.818170	0.038182
53.309100	3.818590	0.038186
53.425400	3.818970	0.038190
53.542000	3.819300	0.038193
53.658300	3.819580	0.038196
53.773900	3.819820	0.038198
53.890000	3.820010	0.038200
54.006900	3.820160	0.038202
54.123700	3.820260	0.038203
54.239600	3.820320	0.038203
54.354900	3.820340	0.038203
54.471100	3.820310	0.038203
54.589000	3.820240	0.038202
54.707400	3.820130	0.038201
54.827100	3.820000	0.038200
54.946500	3.819840	0.038198
55.066600	3.819670	0.038197
55.187800	3.819500	0.038195
55.307700	3.819330	0.038193
55.429000	3.819110	0.038191
55.552700	3.818960	0.038190
55.675600	3.818810	0.038188
55.797300	3.818690	0.038187
55.920900	3.818580	0.038186
56.045600	3.818520	0.038185
56.170600	3.818470	0.038185
56.296100	3.818420	0.038184
56.421800	3.818360	0.038184
56.549000	3.818270	0.038183
56.675500	3.818170	0.038182
56.800500	3.818030	0.038180
56.924900	3.817880	0.038179
57.048500	3.817700	0.038177
57.172800	3.817520	0.038175
57.295400	3.817320	0.038173
57.418400	3.817120	0.038171
57.540900	3.816900	0.038169
57.663800	3.816670	0.038167
57.785600	3.816420	0.038164
57.906800	3.816170	0.038162
58.025600	3.815910	0.038159
58.144500	3.815660	0.038157
58.263000	3.815370	0.038154
58.380700	3.815070	0.038151
58.500100	3.814740	0.038147
58.619500	3.814400	0.038144
58.739100	3.814040	0.038140
58.860000	3.813660	0.038137
58.981100	3.813250	0.038133
59.101400	3.812840	0.038128
59.222600	3.812430	0.038124
59.343600	3.812130	0.038121
59.464300	3.811960	0.038120
59.584900	3.811900	0.038119
59.706900	3.811950	0.038120
59.828000	3.812150	0.038122
59.948600	3.812700	0.038127
60.070600	3.813090	0.038131
60.190300	3.813500	0.038135
60.307700	3.813920	0.038139
60.425000	3.814310	0.038143
60.542200	3.814670	0.038147
60.660600	3.815000	0.038150
60.778400	3.815290	0.038153
60.895600	3.815560	0.038156
61.014400	3.815810	0.038158
61.132100	3.816060	0.038161
61.251100	3.816320	0.038163
61.371200	3.816560	0.038166
61.489400	3.816830	0.038168
61.609000	3.817100	0.038171
61.729100	3.817380	0.038174
61.846400	3.817670	0.038177
61.963400	3.817940	0.038179
62.081200	3.818220	0.038182
62.196500	3.818500	0.038185
62.312000	3.818750	0.038188
62.426600	3.819000	0.038190
62.542300	3.819210	0.038192
62.657700	3.819420	0.038194
62.775200	3.819580	0.038196
62.894900	3.819690	0.038197
63.016100	3.819820	0.038198
63.138400	3.819940	0.038199
63.263400	3.820060	0.038201
63.389100	3.820150	0.038202
63.515500	3.820240	0.038202
63.642800	3.820300	0.038203
63.770000	3.820300	0.038203
63.896200	3.820240	0.038202
64.022100	3.820140	0.038201
64.149300	3.819950	0.038200
64.276000	3.819680	0.038197
64.405800	3.819290	0.038193
64.534400	3.818810	0.038188
64.659900	3.818260	0.038183
64.788100	3.817630	0.038176
64.918100	3.816940	0.038169
65.047900	3.816210	0.038162
65.178100	3.815450	0.038155
65.307600	3.814680	0.038147
65.437800	3.813910	0.038139
65.567700	3.813150	0.038132
65.696800	3.812400	0.038124
65.824900	3.811690	0.038117
65.953400	3.811030	0.038110
66.081100	3.810480	0.038105
66.208500	3.810040	0.038100
66.334900	3.809720	0.038097
66.460200	3.809480	0.038095
66.585200	3.809410	0.038094
66.709600	3.809340	0.038093
66.835200	3.809520	0.038095
66.960700	3.809830	0.038098
67.085700	3.810230	0.038102
67.211700	3.810670	0.038107
67.337400	3.811150	0.038112
67.463400	3.811630	0.038116
67.590000	3.812120	0.038121
67.716400	3.812650	0.038127
67.842300	3.813110	0.038131
67.968600	3.813550	0.038136
68.095000	3.813930	0.038139
68.224000	3.814260	0.038143
68.350600	3.814480	0.038145
68.478100	3.814630	0.038146
68.607100	3.814710	0.038147
68.734700	3.814730	0.038147
68.861600	3.814700	0.038147
68.988500	3.814620	0.038146
69.115900	3.814490	0.038145
69.243100	3.814330	0.038143
69.369400	3.814130	0.038141
69.496600	3.813900	0.038139
69.623900	3.813660	0.038137
69.751900	3.813410	0.038134
69.877100	3.813160	0.038132
70.000800	3.812920	0.038129
70.125200	3.812700	0.038127
70.248400	3.812500	0.038125
70.369700	3.812320	0.038123
70.490500	3.812200	0.038122
70.607800	3.812160	0.038122
70.723400	3.812280	0.038123
70.837300	3.812480	0.038125
70.951000	3.812790	0.038128
71.063300	3.813220	0.038132
71.174600	3.813750	0.038138
71.285300	3.814370	0.038144
71.395300	3.815060	0.038151
71.506000	3.815770	0.038158
71.614500	3.816350	0.038164
71.724500	3.816780	0.038168
71.833200	3.817070	0.038171
71.942700	3.817230	0.038172
72.049700	3.817210	0.038172
72.155000	3.817070	0.038171
72.259100	3.816810	0.038168
72.361800	3.816510	0.038165
72.462500	3.816170	0.038162
72.562500	3.815810	0.038158
72.661800	3.815460	0.038155
72.758500	3.815100	0.038151
72.854800	3.814770	0.038148
72.951600	3.814410	0.038144
73.049100	3.814070	0.038141
73.144700	3.813690	0.038137
73.240000	3.813310	0.038133
73.333200	3.812940	0.038129
73.426600	3.812550	0.038126
73.519200	3.812170	0.038122
73.611500	3.811790	0.038118
73.703600	3.811410	0.038114
73.795700	3.811020	0.038110
73.886800	3.810680	0.038107
73.978400	3.810370	0.038104
74.069200	3.810140	0.038101
74.160600	3.809970	0.038100
74.252500	3.809890	0.038099
74.345700	3.809850	0.038099
74.439400	3.809860	0.038099
74.533100	3.809930	0.038099
74.627200	3.809990	0.038100
74.721400	3.810030	0.038100
74.816800	3.810070	0.038101
74.914600	3.810090	0.038101
75.013800	3.810100	0.038101
75.114300	3.810100	0.038101
75.215100	3.810090	0.038101
75.317800	3.810100	0.038101
75.419500	3.810070	0.038101
75.521000	3.810040	0.038100
75.622100	3.810020	0.038100
75.723300	3.810020	0.038100
75.823200	3.810030	0.038100
75.924400	3.810050	0.038101
76.026300	3.810030	0.038100
76.127500	3.810150	0.038102
76.227500	3.810340	0.038103
76.329900	3.810620	0.038106
76.431700	3.810970	0.038110
76.532700	3.811410	0.038114
76.635500	3.811930	0.038119
76.738500	3.812240	0.038122
76.841600	3.812880	0.038129
76.946700	3.813560	0.038136
77.052500	3.814230	0.038142
77.159000	3.814840	0.038148
77.266400	3.815390	0.038154
77.375300	3.815860	0.038159
77.481100	3.816200	0.038162
77.589000	3.816570	0.038166
77.700500	3.816690	0.038167
77.808500	3.816680	0.038167
77.916700	3.816570	0.038166
78.025600	3.816380	0.038164
78.137600	3.816110	0.038161
78.252100	3.815810	0.038158
78.368100	3.815430	0.038154
78.484900	3.815010	0.038150
78.602300	3.814540	0.038145
78.720200	3.814060	0.038141
78.840000	3.813570	0.038136
78.960100	3.813070	0.038131
79.081100	3.812600	0.038126
79.199900	3.812150	0.038122
79.319500	3.811740	0.038117
79.441200	3.811370	0.038114
79.561900	3.811030	0.038110
79.684200	3.810740	0.038107
79.804600	3.810490	0.038105
79.925300	3.810280	0.038103
80.046200	3.810130	0.038101
80.166500	3.810020	0.038100
80.285900	3.809950	0.038100
80.404500	3.809910	0.038099
80.522700	3.809980	0.038100
80.641800	3.810160	0.038102
80.760000	3.810440	0.038104
80.878900	3.810850	0.038109
80.997300	3.811370	0.038114
81.114400	3.811950	0.038120
81.233600	3.812540	0.038125
81.353000	3.813050	0.038131
81.472800	3.813510	0.038135
81.594500	3.813870	0.038139
81.715900	3.814100	0.038141
81.837300	3.814200	0.038142
81.959000	3.814200	0.038142
82.081100	3.814110	0.038141
82.203000	3.813970	0.038140
82.326000	3.813820	0.038138
82.448700	3.813670	0.038137
82.571400	3.813530	0.038135
82.694600	3.813420	0.038134
82.818400	3.813330	0.038133
82.942700	3.813270	0.038133
83.067700	3.813240	0.038132
83.192900	3.813230	0.038132
83.318500	3.813220	0.038132
83.443200	3.813230	0.038132
83.567600	3.813230	0.038132
83.690600	3.813220	0.038132
83.813400	3.813200	0.038132
83.935800	3.813170	0.038132
84.058900	3.813150	0.038132
84.181500	3.813100	0.038131
84.305000	3.813040	0.038130
84.427200	3.812980	0.038130
84.552800	3.812910	0.038129
84.678500	3.812880	0.038129
84.804400	3.812810	0.038128
84.931000	3.812770	0.038128
85.057300	3.812760	0.038128
85.183600	3.812710	0.038127
85.309400	3.812680	0.038127
85.435000	3.812600	0.038126
85.560300	3.812480	0.038125
85.686000	3.812330	0.038123
85.811400	3.812190	0.038122
85.936300	3.812030	0.038120
86.060500	3.811880	0.038119
86.185200	3.811710	0.038117
86.308300	3.811550	0.038116
86.432900	3.811400	0.038114
86.559500	3.811250	0.038113
86.687300	3.811090	0.038111
86.812000	3.810950	0.038110
86.939800	3.810820	0.038108
87.069100	3.810690	0.038107
87.198700	3.810590	0.038106
87.326000	3.810490	0.038105
87.452200	3.810420	0.038104
87.578500	3.810380	0.038104
87.706000	3.810400	0.038104
87.832200	3.810590	0.038106
87.959000	3.810820	0.038108
88.084400	3.810980	0.038110
88.209100	3.811170	0.038112
88.332000	3.811360	0.038114
88.458400	3.811550	0.038116
88.585000	3.811730	0.038117
88.710300	3.811870	0.038119
88.836200	3.812260	0.038123
88.960000	3.812310	0.038123
89.086700	3.812300	0.038123
89.213100	3.812210	0.038122
89.338500	3.812050	0.038121
89.464200	3.811860	0.038119
89.589700	3.811650	0.038117
89.715500	3.811400	0.038114
89.841400	3.811140	0.038111
89.968500	3.810880	0.038109
90.097400	3.810620	0.038106
90.226000	3.810360	0.038104
90.355000	3.810120	0.038101
90.485100	3.809890	0.038099
90.615000	3.809670	0.038097
90.745200	3.809480	0.038095
90.874700	3.809320	0.038093
91.003300	3.809180	0.038092
91.131700	3.809080	0.038091
91.261900	3.809010	0.038090
91.391000	3.808990	0.038090
91.520400	3.809010	0.038090
91.648900	3.809060	0.038091
91.777100	3.809170	0.038092
91.904800	3.809320	0.038093
92.032200	3.809540	0.038095
92.160200	3.809800	0.038098
92.287200	3.810140	0.038101
92.412900	3.810520	0.038105
92.538600	3.810930	0.038109
92.663700	3.811370	0.038114
92.789500	3.811800	0.038118
92.916700	3.812240	0.038122
93.041900	3.812580	0.038126
93.167700	3.812820	0.038128
93.293000	3.812960	0.038130
93.419100	3.812950	0.038130
93.544900	3.812810	0.038128
93.671100	3.812560	0.038126
93.797000	3.812210	0.038122
93.923800	3.811800	0.038118
94.048500	3.811330	0.038113
94.173500	3.810860	0.038109
94.298100	3.810380	0.038104
94.423300	3.809910	0.038099
94.548000	3.809450	0.038095
94.673100	3.809000	0.038090
94.796700	3.808570	0.038086
94.920000	3.808140	0.038081
95.044000	3.807730	0.038077
95.166900	3.807350	0.038074
95.288200	3.806970	0.038070
95.407400	3.806620	0.038066
95.526900	3.806330	0.038063
95.645300	3.806020	0.038060
95.764900	3.805740	0.038057
95.881600	3.805510	0.038055
95.999000	3.805340	0.038053
96.116100	3.805250	0.038053
96.233400	3.805230	0.038052
96.349900	3.805290	0.038053
96.468000	3.805410	0.038054
96.587300	3.805570	0.038056
96.706400	3.805810	0.038058
96.825000	3.806080	0.038061
96.943900	3.806370	0.038064
97.062600	3.806680	0.038067
97.181800	3.806970	0.038070
97.300000	3.807270	0.038073
97.420000	3.807560	0.038076
97.540600	3.807830	0.038078
97.662400	3.808110	0.038081
97.784700	3.808350	0.038084
97.908600	3.808570	0.038086
98.030400	3.808770	0.038088
98.153900	3.808940	0.038089
98.277000	3.809080	0.038091
98.400600	3.809210	0.038092
98.523800	3.809310	0.038093
98.648000	3.809400	0.038094
98.773000	3.809490	0.038095
98.899900	3.809560	0.038096
99.026300	3.809640	0.038096
99.153500	3.809680	0.038097
99.278800	3.809760	0.038098
99.402100	3.809860	0.038099
99.526000	3.809980	0.038100
99.649800	3.810120	0.038101
99.773700	3.810290	0.038103
99.894400	3.810470	0.038105
100.017000	3.810650	0.038107
100.140000	3.810790	0.038108
100.265000	3.810790	0.038108
100.389000	3.810820	0.038108
100.512000	3.810810	0.038108
100.634000	3.810730	0.038107
100.758000	3.810590	0.038106
100.881000	3.810410	0.038104
101.005000	3.810170	0.038102
101.129000	3.809920	0.038099
101.254000	3.809660	0.038097
101.378000	3.809420	0.038094
101.502000	3.809200	0.038092
101.627000	3.809040	0.038090
101.751000	3.808920	0.038089
101.876000	3.808820	0.038088
102.000000	3.808750	0.038088
102.123000	3.808710	0.038087
102.249000	3.808680	0.038087
102.375000	3.808670	0.038087
102.501000	3.808660	0.038087
102.626000	3.808670	0.038087
102.751000	3.808680	0.038087
102.876000	3.808690	0.038087
103.001000	3.808670	0.038087
103.127000	3.808690	0.038087
103.254000	3.808770	0.038088
103.380000	3.808830	0.038088
103.505000	3.808900	0.038089
103.633000	3.809030	0.038090
103.762000	3.809190	0.038092
103.890000	3.809370	0.038094
104.020000	3.809560	0.038096
104.151000	3.809750	0.038098
104.281000	3.809940	0.038099
104.413000	3.810120	0.038101
104.548000	3.810280	0.038103
104.684000	3.810380	0.038104
104.819000	3.810460	0.038105
104.956000	3.810490	0.038105
105.092000	3.810490	0.038105
105.229000	3.810460	0.038105
105.365000	3.810410	0.038104
105.497000	3.810340	0.038103
105.630000	3.810240	0.038102
105.765000	3.810120	0.038101
105.896000	3.810000	0.038100
106.027000	3.809880	0.038099
106.160000	3.809750	0.038098
106.293000	3.809600	0.038096
106.425000	3.809460	0.038095
106.557000	3.809310	0.038093
106.689000	3.809150	0.038092
106.822000	3.808980	0.038090
106.953000	3.808980	0.038090
107.083000	3.808770	0.038088
107.213000	3.808580	0.038086
107.340000	3.808370	0.038084
107.466000	3.808170	0.038082
107.592000	3.807960	0.038080
107.717000	3.807730	0.038077
107.842000	3.807510	0.038075
107.966000	3.807290	0.038073
108.091000	3.807060	0.038071
108.216000	3.806920	0.038069
108.341000	3.806830	0.038068
108.465000	3.806770	0.038068
108.591000	3.806760	0.038068
108.715000	3.806760	0.038068
108.843000	3.806780	0.038068
108.971000	3.806830	0.038068
109.099000	3.806900	0.038069
109.227000	3.807000	0.038070
109.355000	3.807100	0.038071
109.484000	3.807230	0.038072
109.613000	3.807390	0.038074
109.740000	3.807570	0.038076
109.868000	3.807740	0.038077
109.995000	3.807930	0.038079
110.122000	3.808100	0.038081
110.251000	3.808280	0.038083
110.379000	3.808460	0.038085
110.510000	3.808670	0.038087
110.642000	3.808890	0.038089
110.772000	3.809120	0.038091
110.901000	3.809330	0.038093
111.032000	3.809550	0.038096
111.161000	3.809740	0.038097
111.291000	3.809910	0.038099
111.421000	3.810080	0.038101
111.552000	3.810250	0.038103
111.682000	3.810390	0.038104
111.812000	3.810500	0.038105
111.939000	3.810590	0.038106
112.068000	3.810600	0.038106
112.197000	3.810540	0.038105
112.325000	3.810410	0.038104
112.455000	3.810220	0.038102
112.584000	3.809950	0.038100
112.714000	3.809600	0.038096
112.844000	3.809210	0.038092
112.972000	3.808790	0.038088
113.100000	3.808350	0.038084
113.229000	3.807920	0.038079
113.354000	3.807490	0.038075
113.479000	3.807060	0.038071
113.603000	3.806640	0.038066
113.728000	3.806230	0.038062
113.852000	3.805810	0.038058
113.977000	3.805380	0.038054
114.100000	3.804930	0.038049
114.223000	3.804480	0.038045
114.348000	3.804030	0.038040
114.473000	3.803560	0.038036
114.600000	3.803140	0.038031
114.727000	3.802880	0.038029
114.856000	3.802540	0.038025
114.985000	3.802270	0.038023
115.116000	3.802080	0.038021
115.248000	3.801980	0.038020
115.377000	3.801980	0.038020
115.507000	3.802040	0.038020
115.636000	3.802170	0.038022
115.764000	3.802360	0.038024
115.893000	3.802620	0.038026
116.021000	3.802890	0.038029
116.147000	3.803100	0.038031
116.274000	3.803350	0.038034
116.400000	3.803580	0.038036
116.525000	3.803730	0.038037
116.650000	3.803830	0.038038
116.775000	3.803890	0.038039
116.900000	3.803900	0.038039
117.025000	3.803860	0.038039
117.150000	3.803770	0.038038
117.276000	3.803630	0.038036
117.403000	3.803440	0.038034
117.530000	3.803230	0.038032
117.657000	3.802980	0.038030
117.783000	3.802720	0.038027
117.908000	3.802440	0.038024
118.035000	3.802150	0.038022
118.161000	3.801850	0.038019
118.285000	3.801550	0.038016
118.407000	3.801240	0.038012
118.529000	3.800960	0.038010
118.652000	3.800750	0.038008
118.773000	3.800490	0.038005
118.894000	3.800300	0.038003
119.012000	3.800180	0.038002
119.130000	3.800180	0.038002
119.253000	3.800280	0.038003
119.370000	3.800490	0.038005
119.487000	3.800790	0.038008
119.604000	3.801010	0.038010
119.725000	3.801510	0.038015
119.845000	3.802070	0.038021
119.963000	3.802680	0.038027
120.079000	3.803330	0.038033
120.197000	3.804010	0.038040
120.315000	3.804710	0.038047
120.431000	3.805380	0.038054
120.550000	3.806020	0.038060
120.669000	3.806600	0.038066
120.788000	3.807100	0.038071
120.909000	3.807490	0.038075
121.029000	3.807780	0.038078
121.150000	3.807970	0.038080
121.271000	3.808060	0.038081
121.394000	3.808050	0.038081
121.517000	3.807960	0.038080
121.642000	3.807780	0.038078
121.766000	3.807520	0.038075
121.891000	3.807210	0.038072
122.016000	3.806820	0.038068
122.141000	3.806360	0.038064
122.267000	3.805690	0.038057
122.394000	3.805160	0.038052
122.521000	3.804610	0.038046
122.649000	3.804050	0.038041
122.778000	3.803490	0.038035
122.907000	3.802970	0.038030
123.036000	3.802460	0.038025
123.164000	3.801970	0.038020
123.291000	3.801500	0.038015
123.417000	3.801070	0.038011
123.544000	3.800670	0.038007
123.667000	3.800320	0.038003
123.791000	3.800010	0.038000
123.913000	3.799720	0.037997
124.035000	3.799450	0.037995
124.159000	3.799200	0.037992
124.282000	3.798980	0.037990
124.405000	3.798820	0.037988
124.528000	3.798690	0.037987
124.652000	3.798590	0.037986
124.777000	3.798530	0.037985
124.901000	3.798500	0.037985
125.026000	3.798510	0.037985
125.149000	3.798540	0.037985
125.271000	3.798600	0.037986
125.394000	3.798660	0.037987
125.516000	3.798730	0.037987
125.639000	3.798780	0.037988
125.762000	3.798830	0.037988
125.882000	3.798860	0.037989
126.004000	3.798910	0.037989
126.128000	3.798980	0.037990
126.252000	3.799080	0.037991
126.377000	3.799230	0.037992
126.502000	3.799470	0.037995
126.624000	3.799770	0.037998
126.745000	3.800130	0.038001
126.868000	3.800520	0.038005
126.990000	3.800910	0.038009
127.113000	3.801200	0.038012
127.235000	3.801580	0.038016
127.357000	3.801930	0.038019
127.481000	3.802200	0.038022
127.605000	3.802390	0.038024
127.728000	3.802490	0.038025
127.852000	3.802510	0.038025
127.977000	3.802460	0.038025
128.102000	3.802350	0.038024
128.231000	3.802200	0.038022
128.359000	3.802000	0.038020
128.483000	3.801790	0.038018
128.612000	3.801560	0.038016
128.740000	3.801320	0.038013
128.868000	3.801080	0.038011
128.992000	3.800860	0.038009
129.118000	3.800650	0.038007
129.243000	3.800450	0.038005
129.368000	3.800300	0.038003
129.495000	3.800180	0.038002
129.622000	3.800120	0.038001
129.749000	3.800100	0.038001
129.874000	3.800100	0.038001
130.000000	3.800160	0.038002
130.126000	3.800250	0.038003
130.252000	3.800400	0.038004
130.378000	3.800570	0.038006
130.506000	3.800840	0.038008
130.633000	3.801160	0.038012
130.758000	3.801500	0.038015
130.883000	3.801860	0.038019
131.009000	3.802140	0.038021
131.134000	3.802500	0.038025
131.260000	3.802800	0.038028
131.384000	3.803050	0.038031
131.509000	3.803190	0.038032
131.633000	3.803230	0.038032
131.756000	3.803170	0.038032
131.879000	3.803030	0.038030
132.004000	3.802790	0.038028
132.129000	3.802450	0.038025
132.254000	3.802020	0.038020
132.383000	3.801540	0.038015
132.510000	3.800990	0.038010
132.637000	3.800360	0.038004
132.763000	3.799700	0.037997
132.889000	3.799040	0.037990
133.014000	3.798380	0.037984
133.141000	3.797720	0.037977
133.266000	3.797090	0.037971
133.391000	3.796500	0.037965
133.515000	3.795980	0.037960
133.638000	3.795390	0.037954
133.760000	3.794930	0.037949
133.882000	3.794530	0.037945
134.004000	3.794180	0.037942
134.125000	3.793940	0.037939
134.247000	3.793700	0.037937
134.369000	3.793520	0.037935
134.493000	3.793370	0.037934
134.620000	3.793250	0.037933
134.749000	3.793350	0.037934
134.879000	3.793300	0.037933
135.012000	3.793260	0.037933
135.146000	3.793230	0.037932
135.283000	3.793190	0.037932
135.419000	3.793120	0.037931
135.554000	3.793030	0.037930
135.688000	3.792950	0.037930
135.821000	3.792870	0.037929
135.954000	3.792800	0.037928
136.087000	3.792710	0.037927
136.222000	3.792660	0.037927
136.357000	3.792640	0.037926
136.492000	3.792630	0.037926
136.627000	3.792650	0.037927
136.763000	3.792710	0.037927
136.900000	3.792800	0.037928
137.037000	3.792920	0.037929
137.173000	3.793080	0.037931
137.309000	3.793280	0.037933
137.448000	3.793520	0.037935
137.586000	3.793760	0.037938
137.724000	3.794100	0.037941
137.863000	3.794470	0.037945
138.003000	3.794870	0.037949
138.143000	3.795310	0.037953
138.282000	3.795790	0.037958
138.423000	3.796280	0.037963
138.565000	3.796790	0.037968
138.707000	3.797290	0.037973
138.849000	3.797750	0.037978
138.990000	3.798130	0.037981
139.131000	3.798460	0.037985
139.272000	3.798700	0.037987
139.413000	3.798820	0.037988
139.554000	3.798830	0.037988
139.695000	3.798750	0.037988
139.834000	3.798600	0.037986
139.972000	3.798380	0.037984
140.110000	3.798120	0.037981
140.246000	3.797830	0.037978
140.379000	3.797530	0.037975
140.512000	3.797250	0.037973
140.645000	3.796990	0.037970
140.778000	3.796750	0.037968
140.911000	3.796560	0.037966
141.044000	3.796400	0.037964
141.176000	3.796260	0.037963
141.308000	3.796140	0.037961
141.441000	3.796040	0.037960
141.576000	3.795940	0.037959
141.712000	3.795850	0.037959
141.847000	3.795760	0.037958
141.980000	3.795690	0.037957
142.111000	3.795600	0.037956
142.243000	3.795520	0.037955
142.372000	3.795380	0.037954
142.504000	3.795270	0.037953
142.636000	3.795140	0.037951
142.770000	3.794990	0.037950
142.903000	3.794800	0.037948
143.039000	3.794590	0.037946
143.174000	3.794340	0.037943
143.310000	3.794060	0.037941
143.445000	3.793730	0.037937
143.580000	3.793380	0.037934
143.717000	3.792950	0.037930
143.855000	3.792480	0.037925
143.992000	3.792000	0.037920
144.130000	3.791530	0.037915
144.267000	3.791070	0.037911
144.403000	3.790650	0.037907
144.540000	3.790240	0.037902
144.676000	3.789860	0.037899
144.812000	3.789520	0.037895
144.946000	3.789200	0.037892
145.079000	3.788920	0.037889
145.212000	3.788660	0.037887
145.344000	3.788430	0.037884
145.475000	3.788220	0.037882
145.607000	3.788030	0.037880
145.741000	3.787850	0.037879
145.875000	3.787680	0.037877
146.011000	3.787460	0.037875
146.149000	3.787350	0.037874
146.286000	3.787250	0.037873
146.422000	3.787180	0.037872
146.558000	3.787100	0.037871
146.696000	3.787060	0.037871
146.833000	3.787030	0.037870
146.972000	3.786970	0.037870
147.111000	3.787030	0.037870
147.248000	3.786990	0.037870
147.387000	3.786940	0.037869
147.525000	3.786900	0.037869
147.660000	3.786790	0.037868
147.795000	3.786720	0.037867
147.931000	3.786660	0.037867
148.066000	3.786600	0.037866
148.201000	3.786570	0.037866
148.335000	3.786540	0.037865
148.470000	3.786540	0.037865
148.603000	3.786550	0.037866
148.738000	3.786590	0.037866
148.871000	3.786640	0.037866
149.004000	3.786690	0.037867
149.138000	3.786760	0.037868
149.272000	3.786810	0.037868
149.408000	3.786870	0.037869
149.544000	3.786900	0.037869
149.681000	3.786920	0.037869
149.820000	3.786910	0.037869
149.959000	3.786870	0.037869
150.101000	3.786810	0.037868
150.243000	3.786710	0.037867
150.386000	3.786630	0.037866
150.531000	3.786580	0.037866
150.678000	3.786480	0.037865
150.824000	3.786400	0.037864
150.970000	3.786340	0.037863
151.116000	3.786290	0.037863
151.260000	3.786270	0.037863
151.406000	3.786210	0.037862
151.553000	3.786160	0.037862
151.698000	3.786120	0.037861
151.840000	3.786070	0.037861
151.980000	3.786010	0.037860
152.118000	3.785940	0.037859
152.256000	3.785860	0.037859
152.396000	3.785780	0.037858
152.536000	3.785670	0.037857
152.677000	3.785540	0.037855
152.817000	3.785370	0.037854
152.957000	3.785170	0.037852
153.096000	3.784920	0.037849
153.237000	3.784620	0.037846
153.376000	3.784290	0.037843
153.515000	3.783890	0.037839
153.656000	3.783440	0.037834
153.795000	3.782930	0.037829
153.934000	3.782360	0.037824
154.074000	3.781710	0.037817
154.212000	3.781000	0.037810
154.351000	3.780220	0.037802
154.490000	3.779400	0.037794
154.631000	3.778440	0.037784
154.771000	3.777550	0.037776
154.911000	3.776660	0.037767
155.050000	3.775780	0.037758
155.188000	3.774910	0.037749
155.327000	3.774140	0.037741
155.465000	3.773420	0.037734
155.602000	3.772740	0.037727
155.738000	3.772120	0.037721
155.876000	3.771550	0.037716
156.015000	3.771040	0.037710
156.153000	3.770610	0.037706
156.289000	3.770160	0.037702
156.429000	3.769750	0.037698
156.566000	3.769350	0.037694
156.706000	3.769000	0.037690
156.846000	3.768660	0.037687
156.988000	3.768360	0.037684
157.127000	3.768090	0.037681
157.267000	3.767840	0.037678
157.406000	3.767630	0.037676
157.544000	3.767430	0.037674
157.684000	3.767260	0.037673
157.825000	3.767100	0.037671
157.966000	3.766940	0.037669
158.107000	3.766780	0.037668
158.249000	3.766610	0.037666
158.390000	3.766440	0.037664
158.531000	3.766260	0.037663
158.673000	3.766070	0.037661
158.813000	3.765930	0.037659
158.954000	3.765760	0.037658
159.097000	3.765600	0.037656
159.238000	3.765460	0.037655
159.380000	3.765360	0.037654
159.523000	3.765270	0.037653
159.666000	3.765220	0.037652
159.811000	3.765190	0.037652
159.953000	3.765260	0.037653
160.098000	3.765240	0.037652
160.241000	3.765240	0.037652
160.383000	3.765240	0.037652
160.526000	3.765210	0.037652
160.667000	3.765170	0.037652
160.808000	3.765090	0.037651
160.950000	3.765000	0.037650
161.091000	3.764890	0.037649
161.230000	3.764760	0.037648
161.369000	3.764600	0.037646
161.509000	3.764420	0.037644
161.649000	3.764230	0.037642
161.790000	3.764000	0.037640
161.930000	3.763750	0.037638
162.069000	3.763460	0.037635
162.210000	3.763140	0.037631
162.351000	3.762790	0.037628
162.492000	3.762410	0.037624
162.634000	3.762010	0.037620
162.774000	3.761590	0.037616
162.911000	3.761150	0.037612
163.045000	3.760780	0.037608
163.179000	3.760340	0.037603
163.313000	3.759920	0.037599
163.448000	3.759510	0.037595
163.583000	3.759070	0.037591
163.718000	3.758690	0.037587
163.854000	3.758340	0.037583
163.987000	3.757990	0.037580
164.123000	3.757630	0.037576
164.258000	3.757290	0.037573
164.393000	3.756850	0.037569
164.527000	3.756350	0.037564
164.661000	3.755800	0.037558
164.798000	3.755170	0.037552
164.933000	3.754460	0.037545
165.069000	3.753660	0.037537
165.206000	3.752780	0.037528
165.345000	3.751800	0.037518
165.488000	3.750750	0.037508
165.634000	3.749600	0.037496
165.781000	3.748380	0.037484
165.930000	3.747080	0.037471
166.079000	3.745740	0.037457
166.227000	3.744320	0.037443
166.374000	3.742890	0.037429
166.518000	3.741450	0.037415
166.662000	3.740030	0.037400
166.806000	3.738650	0.037387
166.947000	3.737320	0.037373
167.088000	3.736070	0.037361
167.230000	3.734900	0.037349
167.369000	3.733780	0.037338
167.509000	3.732770	0.037328
167.649000	3.731810	0.037318
167.789000	3.730940	0.037309
167.929000	3.730130	0.037301
168.071000	3.729400	0.037294
168.213000	3.728730	0.037287
168.355000	3.728120	0.037281
168.499000	3.727560	0.037276
168.644000	3.727130	0.037271
168.790000	3.726620	0.037266
168.935000	3.726130	0.037261
169.081000	3.725630	0.037256
169.228000	3.725160	0.037252
169.376000	3.724600	0.037246
169.521000	3.724030	0.037240
169.666000	3.723400	0.037234
169.814000	3.722760	0.037228
169.960000	3.722090	0.037221
170.106000	3.721390	0.037214
170.249000	3.720690	0.037207
170.391000	3.719960	0.037200
170.533000	3.719230	0.037192
170.671000	3.718510	0.037185
170.809000	3.717780	0.037178
170.945000	3.717070	0.037171
171.079000	3.716350	0.037164
171.217000	3.715660	0.037157
171.356000	3.714960	0.037150
171.494000	3.714270	0.037143
171.635000	3.713590	0.037136
171.777000	3.712950	0.037130
171.921000	3.712290	0.037123
172.066000	3.711650	0.037117
172.210000	3.711030	0.037110
172.356000	3.710430	0.037104
172.500000	3.709820	0.037098
172.645000	3.709240	0.037092
172.789000	3.708650	0.037087
172.932000	3.708010	0.037080
173.077000	3.707410	0.037074
173.222000	3.706800	0.037068
173.369000	3.706190	0.037062
173.518000	3.705560	0.037056
173.670000	3.704920	0.037049
173.821000	3.704280	0.037043
173.972000	3.703630	0.037036
174.121000	3.702980	0.037030
174.272000	3.702320	0.037023
174.424000	3.701640	0.037016
174.576000	3.700930	0.037009
174.729000	3.700190	0.037002
174.880000	3.699400	0.036994
175.033000	3.698550	0.036986
175.185000	3.697630	0.036976
175.338000	3.696660	0.036967
175.492000	3.695620	0.036956
175.647000	3.694500	0.036945
175.801000	3.693310	0.036933
175.954000	3.692040	0.036920
176.107000	3.690700	0.036907
176.258000	3.689300	0.036893
176.405000	3.687820	0.036878
176.551000	3.686200	0.036862
176.695000	3.684610	0.036846
176.840000	3.682960	0.036830
176.986000	3.681270	0.036813
177.131000	3.679600	0.036796
177.279000	3.677890	0.036779
177.428000	3.676090	0.036761
177.579000	3.674330	0.036743
177.730000	3.672540	0.036725
177.883000	3.670720	0.036707
178.036000	3.668910	0.036689
178.186000	3.667020	0.036670
178.336000	3.665090	0.036651
178.483000	3.663140	0.036631
178.630000	3.661190	0.036612
178.778000	3.659250	0.036593
178.925000	3.657330	0.036573
179.071000	3.655440	0.036554
179.216000	3.653580	0.036536
179.359000	3.651760	0.036518
179.501000	3.649980	0.036500
179.641000	3.648250	0.036483
179.782000	3.646580	0.036466
179.923000	3.644950	0.036450
180.062000	3.643390	0.036434
180.200000	3.641890	0.036419
180.337000	3.640450	0.036405
180.477000	3.639090	0.036391
180.618000	3.637780	0.036378
180.759000	3.636550	0.036366
180.900000	3.635370	0.036354
181.042000	3.634270	0.036343
181.184000	3.633210	0.036332
181.327000	3.632200	0.036322
181.469000	3.631260	0.036313
181.615000	3.630360	0.036304
181.762000	3.629490	0.036295
181.910000	3.628670	0.036287
182.059000	3.627840	0.036278
182.206000	3.627030	0.036270
182.354000	3.626210	0.036262
182.501000	3.625390	0.036254
182.650000	3.624550	0.036246
182.797000	3.623700	0.036237
182.942000	3.622830	0.036228
183.087000	3.621930	0.036219
183.231000	3.621000	0.036210
183.373000	3.620060	0.036201
183.517000	3.619110	0.036191
183.661000	3.618170	0.036182
183.808000	3.617200	0.036172
183.955000	3.616250	0.036163
184.107000	3.615290	0.036153
184.260000	3.614350	0.036144
184.411000	3.613420	0.036134
184.561000	3.612470	0.036125
184.710000	3.611490	0.036115
184.858000	3.610480	0.036105
185.008000	3.609430	0.036094
185.157000	3.608330	0.036083
185.305000	3.607140	0.036071
185.450000	3.605870	0.036059
185.592000	3.604520	0.036045
185.737000	3.603060	0.036031
185.883000	3.601500	0.036015
186.030000	3.599850	0.035999
186.177000	3.598140	0.035981
186.324000	3.596340	0.035963
186.467000	3.594410	0.035944
186.609000	3.592420	0.035924
186.753000	3.590350	0.035904
186.895000	3.588180	0.035882
187.038000	3.585910	0.035859
187.180000	3.583580	0.035836
187.321000	3.581170	0.035812
187.462000	3.578700	0.035787
187.601000	3.576160	0.035762
187.738000	3.573540	0.035735
187.873000	3.570860	0.035709
188.009000	3.568080	0.035681
188.145000	3.565240	0.035652
188.279000	3.562320	0.035623
188.411000	3.559330	0.035593
188.543000	3.556270	0.035563
188.674000	3.553160	0.035532
188.807000	3.550000	0.035500
188.939000	3.546820	0.035468
189.078000	3.543640	0.035436
189.216000	3.540470	0.035405
189.356000	3.537320	0.035373
189.495000	3.534200	0.035342
189.638000	3.531140	0.035311
189.781000	3.528120	0.035281
189.924000	3.525200	0.035252
190.068000	3.522340	0.035223
190.212000	3.519590	0.035196
190.356000	3.516920	0.035169
190.503000	3.514420	0.035144
190.649000	3.512050	0.035121
190.798000	3.509800	0.035098
190.949000	3.507740	0.035077
191.099000	3.505710	0.035057
191.247000	3.503800	0.035038
191.394000	3.501940	0.035019
191.538000	3.500130	0.035001
191.685000	3.498370	0.034984
191.832000	3.496660	0.034967
191.980000	3.494960	0.034950
192.128000	3.493290	0.034933
192.280000	3.491630	0.034916
192.428000	3.489970	0.034900
192.576000	3.488330	0.034883
192.724000	3.486690	0.034867
192.871000	3.485080	0.034851
193.020000	3.483470	0.034835
193.169000	3.481870	0.034819
193.317000	3.480300	0.034803
193.461000	3.478740	0.034787
193.609000	3.477220	0.034772
193.757000	3.475710	0.034757
193.903000	3.474220	0.034742
194.050000	3.472750	0.034728
194.194000	3.471290	0.034713
194.338000	3.469820	0.034698
194.481000	3.468340	0.034683
194.623000	3.466850	0.034669
194.766000	3.465350	0.034654
194.906000	3.463820	0.034638
195.046000	3.462260	0.034623
195.188000	3.460630	0.034606
195.328000	3.458900	0.034589
195.470000	3.457040	0.034570
195.613000	3.455070	0.034551
195.755000	3.452960	0.034530
195.899000	3.450690	0.034507
196.044000	3.448260	0.034483
196.190000	3.445650	0.034457
196.337000	3.442890	0.034429
196.483000	3.439980	0.034400
196.627000	3.436920	0.034369
196.770000	3.433730	0.034337
196.914000	3.430420	0.034304
197.058000	3.426990	0.034270
197.202000	3.423460	0.034235
197.344000	3.419800	0.034198
197.485000	3.416060	0.034161
197.627000	3.412250	0.034123
197.768000	3.408340	0.034083
197.910000	3.404350	0.034044
198.053000	3.400260	0.034003
198.196000	3.396110	0.033961
198.341000	3.391890	0.033919
198.485000	3.387660	0.033877
198.629000	3.383410	0.033834
198.774000	3.379110	0.033791
198.919000	3.374850	0.033749
199.064000	3.370650	0.033707
199.210000	3.366470	0.033665
199.355000	3.362440	0.033624
199.499000	3.358460	0.033585
199.644000	3.354570	0.033546
199.790000	3.350750	0.033508
199.934000	3.347010	0.033470
200.079000	3.343360	0.033434
200.226000	3.339790	0.033398
200.371000	3.336290	0.033363
200.514000	3.332810	0.033328
200.660000	3.329400	0.033294
200.807000	3.326050	0.033261
200.953000	3.322730	0.033227
201.100000	3.319450	0.033195
201.246000	3.316190	0.033162
201.389000	3.312980	0.033130
201.533000	3.309780	0.033098
201.676000	3.306610	0.033066
201.815000	3.303440	0.033034
201.958000	3.300290	0.033003
202.102000	3.297170	0.032972
202.245000	3.294050	0.032941
202.391000	3.290980	0.032910
202.535000	3.287910	0.032879
202.676000	3.284870	0.032849
202.817000	3.281850	0.032819
202.957000	3.278840	0.032788
203.095000	3.275850	0.032759
203.234000	3.272930	0.032729
203.373000	3.269950	0.032700
203.513000	3.266970	0.032670
203.649000	3.264010	0.032640
203.784000	3.261070	0.032611
203.916000	3.258150	0.032582
204.050000	3.255240	0.032552
204.186000	3.252360	0.032524
204.319000	3.249460	0.032495
204.454000	3.246590	0.032466
204.589000	3.243710	0.032437
204.726000	3.240860	0.032409
204.865000	3.237930	0.032379
205.003000	3.234970	0.032350
205.141000	3.232010	0.032320
205.281000	3.229040	0.032290
205.419000	3.226050	0.032261
205.559000	3.223000	0.032230
205.700000	3.219930	0.032199
205.841000	3.216800	0.032168
205.983000	3.213630	0.032136
206.126000	3.210420	0.032104
206.267000	3.207150	0.032072
206.411000	3.203850	0.032039
206.553000	3.200490	0.032005
206.694000	3.197090	0.031971
206.834000	3.193640	0.031936
206.975000	3.190160	0.031902
207.117000	3.186620	0.031866
207.260000	3.183020	0.031830
207.403000	3.179380	0.031794
207.547000	3.175670	0.031757
207.696000	3.171780	0.031718
207.847000	3.167960	0.031680
208.001000	3.164070	0.031641
208.157000	3.160150	0.031602
208.311000	3.156210	0.031562
208.464000	3.152220	0.031522
208.616000	3.148190	0.031482
208.767000	3.144090	0.031441
208.917000	3.139910	0.031399
209.066000	3.135610	0.031356
209.216000	3.131220	0.031312
209.366000	3.126740	0.031267
209.517000	3.122190	0.031222
209.665000	3.117590	0.031176
209.816000	3.112940	0.031129
209.968000	3.108240	0.031082
210.121000	3.103520	0.031035
210.273000	3.098790	0.030988
210.426000	3.094070	0.030941
210.579000	3.089380	0.030894
210.731000	3.084710	0.030847
210.878000	3.080080	0.030801
211.024000	3.075530	0.030755
211.171000	3.070980	0.030710
211.316000	3.066450	0.030665
211.457000	3.061960	0.030620
211.597000	3.057450	0.030575
211.739000	3.052970	0.030530
211.884000	3.048480	0.030485
212.030000	3.043970	0.030440
212.174000	3.039470	0.030395
212.318000	3.034940	0.030349
212.464000	3.030430	0.030304
212.614000	3.025860	0.030259
212.763000	3.021260	0.030213
212.916000	3.016630	0.030166
213.070000	3.011930	0.030119
213.222000	3.007190	0.030072
213.376000	3.002320	0.030023
213.530000	2.997330	0.029973
213.684000	2.992230	0.029922
213.836000	2.986950	0.029870
213.986000	2.981570	0.029816
214.135000	2.976080	0.029761
214.285000	2.970510	0.029705
214.435000	2.964850	0.029649
214.587000	2.959120	0.029591
214.739000	2.953330	0.029533
214.890000	2.947510	0.029475
215.039000	2.941670	0.029417
215.187000	2.935800	0.029358
215.336000	2.929920	0.029299
215.482000	2.924040	0.029240
215.628000	2.918160	0.029182
215.773000	2.912310	0.029123
215.917000	2.906460	0.029065
216.060000	2.900630	0.029006
216.202000	2.894840	0.028948
216.341000	2.889090	0.028891
216.481000	2.883400	0.028834
216.621000	2.877770	0.028778
216.757000	2.872210	0.028722
216.894000	2.866720	0.028667
217.032000	2.861310	0.028613
217.170000	2.855950	0.028560
217.309000	2.850660	0.028507
217.446000	2.845420	0.028454
217.584000	2.840250	0.028403
217.725000	2.835050	0.028351
217.868000	2.829980	0.028300
218.010000	2.824940	0.028249
218.153000	2.819920	0.028199
218.296000	2.814910	0.028149
218.437000	2.809910	0.028099
218.577000	2.804910	0.028049
218.715000	2.799900	0.027999
218.850000	2.794870	0.027949
218.985000	2.789810	0.027898
219.120000	2.784700	0.027847
219.256000	2.779560	0.027796
219.393000	2.774370	0.027744
219.532000	2.769130	0.027691
219.671000	2.763800	0.027638
219.812000	2.758410	0.027584
219.953000	2.752950	0.027530
220.097000	2.747450	0.027475
220.241000	2.741910	0.027419
220.386000	2.736320	0.027363
220.532000	2.730700	0.027307
220.677000	2.725040	0.027250
220.820000	2.719380	0.027194
220.962000	2.713700	0.027137
221.105000	2.708010	0.027080
221.245000	2.702310	0.027023
221.387000	2.696580	0.026966
221.533000	2.690870	0.026909
221.683000	2.685160	0.026852
221.837000	2.679480	0.026795
221.993000	2.673830	0.026738
222.151000	2.668230	0.026682
222.312000	2.662820	0.026628
222.472000	2.657330	0.026573
222.630000	2.651870	0.026519
222.786000	2.646400	0.026464
222.939000	2.640860	0.026409
223.091000	2.635260	0.026353
223.242000	2.629600	0.026296
223.390000	2.623880	0.026239
223.534000	2.618090	0.026181
223.682000	2.612220	0.026122
223.829000	2.606260	0.026063
223.977000	2.600210	0.026002
224.124000	2.594060	0.025941
224.270000	2.587810	0.025878
224.416000	2.581490	0.025815
224.565000	2.575060	0.025751
224.713000	2.568550	0.025686
224.862000	2.561930	0.025619
225.012000	2.555200	0.025552
225.163000	2.548340	0.025483
225.312000	2.541390	0.025414
225.460000	2.534310	0.025343
225.608000	2.527070	0.025271
225.753000	2.519760	0.025198
225.898000	2.512340	0.025123
226.042000	2.504850	0.025049
226.187000	2.497300	0.024973
226.333000	2.489720	0.024897
226.480000	2.482180	0.024822
226.624000	2.474680	0.024747
226.769000	2.467220	0.024672
226.912000	2.459850	0.024599
227.055000	2.452590	0.024526
227.196000	2.445440	0.024454
227.337000	2.438380	0.024384
227.478000	2.431370	0.024314
227.618000	2.424460	0.024245
227.758000	2.417650	0.024177
227.897000	2.410950	0.024110
228.037000	2.404370	0.024044
228.178000	2.397950	0.023980
228.319000	2.391670	0.023917
228.459000	2.385570	0.023856
228.598000	2.379610	0.023796
228.737000	2.373800	0.023738
228.876000	2.368130	0.023681
229.014000	2.362580	0.023626
229.154000	2.357130	0.023571
229.294000	2.351750	0.023518
229.434000	2.346430	0.023464
229.572000	2.341160	0.023412
229.713000	2.335900	0.023359
229.854000	2.330670	0.023307
229.995000	2.325450	0.023255
230.137000	2.320200	0.023202
230.283000	2.314970	0.023150
230.432000	2.309730	0.023097
230.584000	2.304470	0.023045
230.742000	2.299180	0.022992
230.901000	2.293870	0.022939
231.058000	2.288480	0.022885
231.214000	2.283060	0.022831
231.371000	2.277580	0.022776
231.527000	2.272040	0.022720
231.681000	2.266470	0.022665
231.838000	2.260870	0.022609
231.996000	2.255250	0.022553
232.154000	2.249570	0.022496
232.311000	2.243830	0.022438
232.467000	2.238020	0.022380
232.618000	2.232160	0.022322
232.768000	2.226250	0.022263
232.912000	2.220290	0.022203
233.054000	2.214280	0.022143
233.194000	2.208230	0.022082
233.331000	2.202150	0.022022
233.466000	2.196010	0.021960
233.601000	2.189850	0.021899
233.737000	2.183650	0.021837
233.879000	2.177430	0.021774
234.025000	2.171160	0.021712
234.175000	2.164890	0.021649
234.327000	2.158580	0.021586
234.477000	2.152230	0.021522
234.621000	2.145850	0.021459
234.758000	2.139420	0.021394
234.893000	2.132920	0.021329
235.029000	2.126360	0.021264
235.166000	2.119700	0.021197
235.303000	2.112960	0.021130
235.438000	2.106090	0.021061
235.576000	2.099110	0.020991
235.715000	2.092020	0.020920
235.853000	2.084820	0.020848
235.990000	2.077520	0.020775
236.133000	2.070110	0.020701
236.275000	2.062580	0.020626
236.417000	2.054950	0.020550
236.563000	2.047190	0.020472
236.707000	2.039280	0.020393
236.848000	2.031240	0.020312
236.987000	2.023070	0.020231
237.124000	2.014770	0.020148
237.258000	2.006360	0.020064
237.393000	1.997900	0.019979
237.529000	1.989400	0.019894
237.668000	1.980910	0.019809
237.810000	1.972430	0.019724
237.955000	1.964050	0.019641
238.099000	1.955760	0.019558
238.244000	1.947600	0.019476
238.389000	1.939620	0.019396
238.533000	1.931810	0.019318
238.680000	1.924200	0.019242
238.829000	1.916770	0.019168
238.980000	1.909550	0.019096
239.133000	1.902520	0.019025
239.286000	1.895690	0.018957
239.436000	1.889080	0.018891
239.582000	1.882680	0.018827
239.725000	1.876510	0.018765
239.866000	1.870600	0.018706
240.007000	1.864930	0.018649
240.147000	1.859530	0.018595
240.287000	1.854370	0.018544
240.426000	1.849440	0.018494
240.564000	1.844730	0.018447
240.701000	1.840200	0.018402
240.837000	1.835770	0.018358
240.970000	1.831460	0.018315
241.102000	1.827230	0.018272
241.230000	1.823060	0.018231
241.358000	1.818880	0.018189
241.482000	1.814700	0.018147
241.606000	1.810500	0.018105
241.732000	1.806290	0.018063
241.858000	1.802050	0.018021
241.985000	1.797770	0.017978
242.114000	1.793450	0.017935
242.242000	1.789060	0.017891
242.369000	1.784590	0.017846
242.496000	1.780050	0.017801
242.621000	1.775400	0.017754
242.747000	1.770660	0.017707
242.872000	1.765810	0.017658
242.997000	1.760840	0.017608
243.122000	1.755800	0.017558
243.247000	1.750670	0.017507
243.376000	1.745480	0.017455
243.508000	1.740200	0.017402
243.644000	1.734860	0.017349
243.781000	1.729480	0.017295
243.920000	1.724070	0.017241
244.056000	1.718610	0.017186
244.189000	1.713130	0.017131
244.322000	1.707620	0.017076
244.451000	1.702080	0.017021
244.580000	1.696480	0.016965
244.709000	1.690850	0.016909
244.839000	1.685180	0.016852
244.972000	1.679510	0.016795
245.106000	1.673830	0.016738
245.238000	1.668150	0.016682
245.368000	1.662490	0.016625
245.497000	1.656820	0.016568
245.625000	1.651140	0.016511
245.754000	1.645410	0.016454
245.879000	1.639610	0.016396
246.005000	1.633750	0.016338
246.130000	1.627800	0.016278
246.252000	1.621740	0.016217
246.377000	1.615580	0.016156
246.507000	1.609270	0.016093
246.638000	1.602840	0.016028
246.772000	1.596290	0.015963
246.911000	1.589590	0.015896
247.053000	1.582780	0.015828
247.197000	1.575820	0.015758
247.344000	1.568730	0.015687
247.495000	1.561510	0.015615
247.646000	1.554160	0.015542
247.802000	1.546690	0.015467
247.957000	1.539130	0.015391
248.112000	1.531480	0.015315
248.266000	1.523750	0.015238
248.416000	1.515980	0.015160
248.566000	1.508190	0.015082
248.716000	1.500410	0.015004
248.862000	1.492690	0.014927
249.003000	1.485050	0.014851
249.141000	1.477510	0.014775
249.276000	1.470100	0.014701
249.413000	1.462810	0.014628
249.550000	1.455490	0.014555
249.689000	1.448450	0.014485
249.830000	1.441560	0.014416
249.973000	1.434820	0.014348
250.113000	1.428250	0.014283
250.254000	1.421840	0.014218
250.396000	1.415650	0.014157
250.539000	1.409650	0.014097
250.688000	1.403870	0.014039
250.838000	1.398310	0.013983
250.991000	1.392960	0.013930
251.146000	1.387840	0.013878
251.299000	1.382910	0.013829
251.453000	1.378150	0.013782
251.603000	1.373520	0.013735
251.752000	1.368990	0.013690
251.897000	1.364540	0.013645
252.040000	1.360140	0.013601
252.184000	1.355760	0.013558
252.332000	1.351390	0.013514
252.480000	1.347030	0.013470
252.631000	1.342690	0.013427
252.782000	1.338340	0.013383
252.931000	1.333990	0.013340
253.079000	1.329630	0.013296
253.227000	1.325230	0.013252
253.373000	1.320810	0.013208
253.518000	1.316350	0.013164
253.662000	1.311820	0.013118
253.806000	1.307200	0.013072
253.947000	1.302480	0.013025
254.087000	1.297660	0.012977
254.227000	1.292750	0.012928
254.368000	1.287720	0.012877
254.512000	1.282800	0.012828
254.655000	1.277580	0.012776
254.796000	1.272290	0.012723
254.934000	1.266930	0.012669
255.075000	1.261520	0.012615
255.216000	1.256070	0.012561
255.360000	1.250590	0.012506
255.502000	1.245110	0.012451
255.643000	1.239620	0.012396
255.784000	1.234100	0.012341
255.925000	1.228580	0.012286
256.067000	1.223040	0.012230
256.214000	1.217520	0.012175
256.364000	1.212020	0.012120
256.516000	1.206550	0.012066
256.674000	1.201120	0.012011
256.833000	1.195710	0.011957
256.994000	1.190370	0.011904
257.153000	1.185110	0.011851
257.311000	1.179900	0.011799
257.462000	1.174750	0.011748
257.611000	1.169640	0.011696
257.760000	1.164580	0.011646
257.908000	1.159570	0.011596
258.052000	1.154620	0.011546
258.197000	1.149700	0.011497
258.339000	1.144800	0.011448
258.480000	1.139940	0.011399
258.621000	1.135100	0.011351
258.755000	1.130260	0.011303
258.890000	1.125450	0.011255
259.024000	1.120650	0.011207
259.159000	1.115840	0.011158
259.295000	1.111020	0.011110
259.429000	1.106170	0.011062
259.559000	1.101410	0.011014
259.691000	1.096530	0.010965
259.825000	1.091620	0.010916
259.957000	1.086720	0.010867
260.092000	1.081840	0.010818
260.225000	1.077050	0.010771
260.360000	1.072310	0.010723
260.496000	1.067680	0.010677
260.630000	1.063170	0.010632
260.764000	1.058800	0.010588
260.902000	1.054570	0.010546
261.041000	1.050470	0.010505
261.179000	1.046510	0.010465
261.315000	1.042730	0.010427
261.443000	1.039080	0.010391
261.571000	1.035590	0.010356
261.699000	1.032240	0.010322
261.831000	1.029040	0.010290
261.967000	1.026010	0.010260
262.104000	1.023170	0.010232
262.238000	1.020490	0.010205
262.370000	1.018000	0.010180
262.503000	1.015680	0.010157
262.636000	1.013540	0.010135
262.765000	1.011550	0.010116
262.891000	1.009670	0.010097
263.014000	1.007890	0.010079
263.134000	1.006170	0.010062
263.255000	1.004490	0.010045
263.379000	1.002830	0.010028
263.505000	1.001170	0.010012
263.632000	0.999675	0.009997
263.760000	0.998028	0.009980
263.889000	0.996384	0.009964
264.019000	0.994772	0.009948
264.150000	0.992999	0.009930
264.282000	0.991158	0.009912
264.414000	0.989260	0.009893
264.544000	0.987241	0.009872
264.672000	0.985133	0.009851
264.799000	0.982920	0.009829
264.927000	0.980617	0.009806
265.056000	0.978208	0.009782
265.184000	0.975695	0.009757
265.310000	0.973092	0.009731
265.434000	0.970425	0.009704
265.557000	0.967713	0.009677
265.683000	0.964984	0.009650
265.811000	0.962240	0.009622
265.943000	0.959494	0.009595
266.081000	0.956723	0.009567
266.222000	0.953936	0.009539
266.361000	0.951111	0.009511
266.493000	0.948273	0.009483
266.620000	0.945403	0.009454
266.743000	0.942510	0.009425
266.867000	0.939606	0.009396
266.994000	0.936695	0.009367
267.128000	0.933773	0.009338
267.263000	0.930867	0.009309
267.396000	0.928004	0.009280
267.526000	0.925183	0.009252
267.653000	0.922419	0.009224
267.782000	0.919714	0.009197
267.915000	0.917089	0.009171
268.052000	0.914332	0.009143
268.193000	0.911833	0.009118
268.335000	0.909598	0.009096
268.480000	0.907187	0.009072
268.630000	0.904804	0.009048
268.778000	0.902438	0.009024
268.928000	0.900111	0.009001
269.081000	0.897820	0.008978
269.231000	0.895547	0.008955
269.379000	0.893318	0.008933
269.530000	0.891093	0.008911
269.678000	0.888882	0.008889
269.823000	0.886663	0.008867
269.974000	0.884414	0.008844
270.125000	0.882152	0.008822
270.283000	0.879832	0.008798
270.442000	0.877490	0.008775
270.600000	0.875086	0.008751
270.755000	0.872609	0.008726
270.911000	0.870091	0.008701
271.061000	0.867524	0.008675
271.208000	0.864936	0.008649
271.357000	0.862335	0.008623
271.508000	0.859732	0.008597
271.657000	0.857116	0.008571
271.807000	0.854509	0.008545
271.952000	0.851955	0.008520
272.092000	0.849458	0.008495
272.225000	0.847024	0.008470
272.358000	0.844678	0.008447
272.495000	0.842414	0.008424
272.636000	0.840244	0.008402
272.779000	0.838179	0.008382
272.920000	0.836219	0.008362
273.060000	0.834369	0.008344
273.204000	0.832515	0.008325
273.349000	0.830837	0.008308
273.493000	0.829251	0.008293
273.638000	0.827692	0.008277
273.786000	0.826233	0.008262
273.936000	0.824816	0.008248
274.088000	0.823450	0.008235
274.239000	0.822112	0.008221
274.389000	0.820798	0.008208
274.544000	0.819477	0.008195
274.695000	0.818145	0.008181
274.842000	0.816796	0.008168
274.991000	0.815405	0.008154
275.136000	0.813952	0.008140
275.280000	0.812477	0.008125
275.421000	0.810955	0.008110
275.561000	0.809386	0.008094
275.702000	0.807778	0.008078
275.845000	0.806097	0.008061
275.990000	0.804341	0.008043
276.134000	0.802515	0.008025
276.279000	0.800611	0.008006
276.425000	0.798654	0.007987
276.568000	0.796655	0.007967
276.707000	0.794614	0.007946
276.841000	0.792569	0.007926
276.973000	0.790526	0.007905
277.103000	0.788469	0.007885
277.234000	0.786446	0.007864
277.369000	0.784490	0.007845
277.508000	0.782641	0.007826
277.646000	0.780911	0.007809
277.778000	0.779273	0.007793
277.909000	0.777744	0.007777
278.037000	0.776235	0.007762
278.170000	0.774971	0.007750
278.305000	0.773802	0.007738
278.443000	0.772659	0.007727
278.578000	0.771568	0.007716
278.712000	0.770493	0.007705
278.842000	0.769440	0.007694
278.973000	0.768394	0.007684
279.103000	0.767345	0.007673
279.228000	0.766316	0.007663
279.349000	0.765311	0.007653
279.467000	0.764333	0.007643
279.584000	0.763358	0.007634
279.699000	0.762379	0.007624
279.821000	0.761399	0.007614
279.945000	0.760399	0.007604
280.072000	0.759423	0.007594
280.202000	0.758456	0.007585
280.333000	0.757503	0.007575
280.460000	0.756575	0.007566
280.583000	0.755661	0.007557
280.703000	0.754778	0.007548
280.822000	0.753893	0.007539
280.941000	0.753015	0.007530
281.064000	0.752136	0.007521
281.189000	0.751264	0.007513
281.318000	0.750432	0.007504
281.446000	0.749618	0.007496
281.573000	0.748827	0.007488
281.701000	0.748062	0.007481
281.830000	0.747313	0.007473
281.960000	0.746579	0.007466
282.091000	0.745873	0.007459
282.224000	0.744976	0.007450
282.361000	0.744304	0.007443
282.495000	0.743616	0.007436
282.625000	0.742957	0.007430
282.752000	0.742259	0.007423
282.879000	0.741543	0.007415
283.011000	0.740821	0.007408
283.144000	0.740093	0.007401
283.277000	0.739352	0.007394
283.410000	0.738613	0.007386
283.546000	0.737877	0.007379
283.678000	0.737132	0.007371
283.805000	0.736389	0.007364
283.930000	0.735665	0.007357
284.051000	0.734949	0.007349
284.171000	0.734225	0.007342
284.293000	0.733602	0.007336
284.415000	0.733045	0.007330
284.541000	0.732546	0.007325
284.672000	0.732147	0.007321
284.805000	0.731834	0.007318
284.941000	0.731585	0.007316
285.078000	0.731392	0.007314
285.213000	0.731279	0.007313
285.347000	0.731147	0.007311
285.479000	0.731008	0.007310
285.609000	0.730851	0.007309
285.738000	0.730689	0.007307
285.866000	0.730510	0.007305
285.990000	0.730313	0.007303
286.110000	0.730072	0.007301
286.227000	0.729799	0.007298
286.347000	0.729468	0.007295
286.463000	0.729075	0.007291
286.575000	0.728619	0.007286
286.689000	0.728088	0.007281
286.802000	0.727548	0.007275
286.914000	0.726878	0.007269
287.023000	0.726138	0.007261
287.134000	0.725324	0.007253
287.252000	0.724518	0.007245
287.367000	0.723626	0.007236
287.481000	0.722713	0.007227
287.592000	0.721806	0.007218
287.700000	0.720944	0.007209
287.806000	0.720151	0.007202
287.911000	0.719423	0.007194
288.013000	0.718740	0.007187
288.111000	0.718126	0.007181
288.205000	0.717571	0.007176
288.297000	0.717070	0.007171
288.391000	0.716657	0.007167
288.483000	0.716303	0.007163
288.574000	0.716000	0.007160
288.662000	0.715748	0.007157
288.750000	0.715541	0.007155
288.834000	0.715331	0.007153
288.918000	0.715171	0.007152
288.997000	0.715046	0.007150
289.073000	0.714952	0.007150
289.155000	0.714944	0.007149
289.240000	0.714994	0.007150
289.325000	0.715065	0.007151
289.410000	0.715129	0.007151
289.490000	0.715189	0.007152
289.569000	0.715224	0.007152
289.646000	0.715217	0.007152
289.724000	0.715170	0.007152
289.802000	0.715045	0.007150
289.884000	0.714864	0.007149
289.966000	0.714675	0.007147
290.047000	0.714471	0.007145
290.128000	0.714257	0.007143
290.209000	0.714029	0.007140
290.289000	0.713802	0.007138
290.368000	0.713589	0.007136
290.449000	0.713368	0.007134
290.530000	0.713141	0.007131
290.608000	0.712893	0.007129
290.683000	0.712650	0.007127
290.756000	0.712402	0.007124
290.823000	0.712150	0.007122
290.888000	0.711897	0.007119
290.949000	0.711647	0.007116
291.006000	0.711397	0.007114
291.061000	0.711157	0.007112
291.113000	0.710916	0.007109
291.167000	0.710683	0.007107
291.215000	0.710451	0.007105
291.262000	0.710256	0.007103
291.311000	0.709930	0.007099
291.359000	0.709717	0.007097
291.403000	0.709576	0.007096
291.444000	0.709440	0.007094
291.482000	0.709308	0.007093
291.520000	0.709187	0.007092
291.559000	0.709104	0.007091
291.597000	0.709030	0.007090
291.640000	0.708949	0.007089
291.684000	0.708849	0.007088
291.729000	0.708740	0.007087
291.775000	0.708624	0.007086
291.821000	0.708513	0.007085
291.868000	0.708371	0.007084
291.915000	0.708235	0.007082
291.967000	0.708093	0.007081
292.026000	0.707959	0.007080
292.085000	0.707809	0.007078
292.143000	0.707675	0.007077
292.201000	0.707534	0.007075
292.261000	0.707391	0.007074
292.327000	0.707265	0.007073
292.390000	0.707126	0.007071
292.455000	0.706995	0.007070
292.515000	0.706892	0.007069
292.569000	0.706831	0.007068
292.622000	0.706757	0.007068
292.678000	0.706712	0.007067
292.739000	0.706687	0.007067
292.806000	0.706643	0.007066
292.876000	0.706607	0.007066
292.945000	0.706582	0.007066
293.013000	0.706569	0.007066
293.079000	0.706540	0.007065
293.142000	0.706551	0.007066
293.204000	0.706566	0.007066
293.264000	0.706580	0.007066
293.321000	0.706580	0.007066
293.379000	0.706573	0.007066
293.437000	0.706551	0.007066
293.490000	0.706513	0.007065
293.543000	0.706440	0.007064
293.594000	0.706331	0.007063
293.649000	0.706201	0.007062
293.704000	0.706034	0.007060
293.753000	0.705820	0.007058
293.799000	0.705555	0.007056
293.842000	0.705286	0.007053
293.881000	0.705007	0.007050
293.927000	0.704730	0.007047
293.974000	0.704449	0.007044
294.023000	0.704160	0.007042
294.067000	0.703889	0.007039
294.108000	0.703637	0.007036
294.143000	0.703411	0.007034
294.175000	0.703227	0.007032
294.207000	0.703048	0.007030
294.236000	0.702897	0.007029
294.262000	0.702766	0.007028
294.285000	0.702662	0.007027
294.302000	0.702585	0.007026
294.319000	0.702512	0.007025
294.336000	0.702472	0.007025
294.355000	0.702468	0.007025
294.380000	0.702508	0.007025
294.404000	0.702592	0.007026
294.431000	0.702760	0.007028
294.457000	0.702960	0.007030
294.486000	0.703198	0.007032
294.514000	0.703467	0.007035
294.544000	0.703740	0.007037
294.577000	0.703987	0.007040
294.611000	0.704205	0.007042
294.648000	0.704377	0.007044
294.689000	0.704470	0.007045
294.726000	0.704526	0.007045
294.766000	0.704507	0.007045
294.807000	0.704446	0.007044
294.850000	0.704374	0.007044
294.892000	0.704268	0.007043
294.930000	0.704149	0.007041
294.964000	0.704040	0.007040
294.999000	0.703913	0.007039
295.035000	0.703783	0.007038
295.076000	0.703655	0.007037
295.115000	0.703506	0.007035
295.149000	0.703354	0.007034
295.181000	0.703208	0.007032
295.213000	0.703055	0.007031
295.247000	0.702896	0.007029
295.283000	0.702747	0.007027
295.314000	0.702593	0.007026
295.341000	0.702456	0.007025
295.371000	0.702331	0.007023
295.401000	0.702219	0.007022
295.430000	0.702116	0.007021
295.455000	0.701998	0.007020
295.481000	0.701899	0.007019
295.504000	0.701819	0.007018
295.524000	0.701773	0.007018
295.549000	0.701843	0.007018
295.573000	0.701900	0.007019
295.596000	0.701943	0.007019
295.612000	0.701996	0.007020
295.623000	0.702075	0.007021
295.631000	0.702140	0.007021
295.639000	0.702164	0.007022
295.646000	0.702161	0.007022
295.655000	0.702155	0.007022
295.665000	0.702141	0.007021
295.677000	0.702099	0.007021
295.690000	0.702048	0.007020
295.703000	0.702004	0.007020
295.721000	0.701961	0.007020
295.744000	0.701911	0.007019
295.770000	0.701879	0.007019
295.795000	0.701826	0.007018
295.819000	0.701785	0.007018
295.840000	0.701752	0.007018
295.861000	0.701708	0.007017
295.883000	0.701657	0.007017
295.903000	0.701594	0.007016
295.923000	0.701551	0.007016
295.943000	0.701536	0.007015
295.958000	0.701529	0.007015
295.973000	0.701515	0.007015
295.986000	0.701541	0.007015
296.001000	0.701559	0.007016
296.016000	0.701598	0.007016
296.033000	0.701661	0.007017
296.052000	0.701746	0.007017
296.072000	0.701848	0.007018
296.095000	0.701954	0.007020
296.120000	0.702024	0.007020
296.146000	0.702092	0.007021
296.171000	0.702149	0.007021
296.193000	0.702191	0.007022
296.213000	0.702200	0.007022
296.237000	0.702173	0.007022
296.262000	0.702128	0.007021
296.296000	0.702048	0.007020
296.331000	0.701923	0.007019
296.364000	0.701765	0.007018
296.393000	0.701567	0.007016
296.417000	0.701358	0.007014
296.441000	0.701154	0.007012
296.470000	0.700947	0.007009
296.497000	0.700736	0.007007
296.525000	0.700543	0.007005
296.551000	0.700361	0.007004
296.577000	0.700169	0.007002
296.599000	0.700042	0.007000
296.616000	0.699939	0.006999
296.628000	0.699846	0.006998
296.640000	0.699786	0.006998
296.655000	0.699709	0.006997
296.671000	0.699631	0.006996
296.687000	0.699574	0.006996
296.700000	0.699531	0.006995
296.713000	0.699514	0.006995
296.732000	0.699546	0.006995
296.758000	0.699633	0.006996
296.788000	0.699749	0.006997
296.826000	0.699906	0.006999
296.865000	0.700104	0.007001
296.898000	0.700322	0.007003
296.926000	0.700526	0.007005
296.956000	0.700733	0.007007
296.986000	0.700905	0.007009
297.019000	0.701019	0.007010
297.053000	0.701068	0.007011
297.084000	0.701066	0.007011
297.110000	0.701020	0.007010
297.136000	0.700931	0.007009
297.165000	0.700630	0.007006
297.185000	0.700486	0.007005
297.202000	0.700372	0.007004
297.216000	0.700260	0.007003
297.232000	0.700153	0.007002
297.254000	0.700040	0.007000
297.280000	0.699898	0.006999
297.309000	0.699757	0.006998
297.342000	0.699621	0.006996
297.376000	0.699485	0.006995
297.411000	0.699350	0.006994
297.449000	0.699218	0.006992
297.489000	0.699113	0.006991
297.531000	0.699010	0.006990
297.570000	0.698925	0.006989
297.601000	0.698841	0.006988
297.628000	0.698759	0.006988
297.654000	0.698692	0.006987
297.680000	0.698612	0.006986
297.708000	0.698552	0.006986
297.737000	0.698517	0.006985
297.764000	0.698499	0.006985
297.790000	0.698528	0.006985
297.818000	0.698585	0.006986
297.848000	0.698675	0.006987
297.878000	0.698712	0.006987
297.911000	0.698861	0.006989
297.945000	0.698958	0.006990
297.978000	0.699028	0.006990
298.014000	0.699076	0.006991
298.051000	0.699092	0.006991
298.090000	0.699086	0.006991
298.130000	0.699046	0.006990
298.166000	0.699007	0.006990
298.201000	0.698946	0.006989
298.238000	0.698880	0.006989
298.274000	0.698809	0.006988
298.314000	0.698731	0.006987
298.354000	0.698639	0.006986
298.393000	0.698548	0.006985
298.432000	0.698460	0.006985
298.467000	0.698324	0.006983
298.497000	0.698216	0.006982
298.527000	0.698103	0.006981
298.555000	0.697990	0.006980
298.583000	0.697891	0.006979
298.610000	0.697826	0.006978
298.630000	0.697785	0.006978
298.645000	0.697766	0.006978
298.660000	0.697743	0.006977
298.677000	0.697743	0.006977
298.700000	0.697831	0.006978
298.724000	0.697892	0.006979
298.754000	0.698012	0.006980
298.785000	0.698123	0.006981
298.816000	0.698225	0.006982
298.847000	0.698304	0.006983
298.880000	0.698396	0.006984
298.911000	0.698470	0.006985
298.943000	0.698539	0.006985
298.967000	0.698564	0.006986
298.988000	0.698551	0.006986
299.007000	0.698517	0.006985
299.025000	0.698464	0.006985
299.036000	0.698385	0.006984
299.041000	0.698272	0.006983
299.046000	0.698140	0.006981
299.052000	0.698005	0.006980
299.054000	0.697858	0.006979
299.055000	0.697719	0.006977
299.053000	0.697579	0.006976
299.049000	0.697443	0.006974
299.045000	0.697324	0.006973
299.044000	0.697222	0.006972
299.044000	0.697135	0.006971
299.041000	0.697112	0.006971
299.038000	0.697048	0.006970
299.039000	0.697034	0.006970
299.042000	0.697095	0.006971
299.046000	0.697137	0.006971
299.046000	0.697149	0.006971
299.040000	0.697161	0.006972
299.034000	0.697215	0.006972
299.024000	0.697277	0.006973
299.013000	0.697389	0.006974
299.002000	0.697533	0.006975
298.987000	0.697695	0.006977
298.969000	0.697862	0.006979
298.947000	0.698047	0.006980
298.924000	0.698228	0.006982
298.902000	0.698396	0.006984
298.885000	0.698550	0.006986
298.871000	0.698667	0.006987
298.860000	0.698715	0.006987
298.851000	0.698738	0.006987
298.844000	0.698732	0.006987
298.842000	0.698707	0.006987
298.843000	0.698654	0.006987
298.843000	0.698590	0.006986
298.842000	0.698242	0.006982
298.842000	0.698355	0.006984
298.839000	0.698306	0.006983
298.835000	0.698243	0.006982
298.830000	0.698213	0.006982
298.825000	0.698144	0.006981
298.816000	0.698103	0.006981
298.804000	0.698071	0.006981
298.791000	0.698022	0.006980
298.779000	0.697992	0.006980
298.766000	0.697961	0.006980
298.754000	0.697924	0.006979
298.743000	0.697902	0.006979
298.731000	0.697857	0.006979
298.719000	0.697818	0.006978
298.711000	0.697776	0.006978
298.697000	0.697752	0.006978
298.682000	0.697748	0.006977
298.668000	0.697764	0.006978
298.654000	0.697821	0.006978
298.645000	0.697890	0.006979
298.647000	0.697982	0.006980
298.654000	0.698098	0.006981
298.669000	0.698223	0.006982
298.693000	0.698359	0.006984
298.723000	0.698443	0.006984
298.755000	0.698594	0.006986
298.786000	0.698698	0.006987
298.814000	0.698805	0.006988
298.839000	0.698890	0.006989
298.863000	0.698960	0.006990
298.887000	0.699024	0.006990
298.908000	0.699055	0.006991
298.927000	0.699079	0.006991
298.944000	0.699098	0.006991
298.959000	0.699107	0.006991
298.973000	0.699097	0.006991
298.982000	0.699099	0.006991
298.988000	0.699103	0.006991
298.990000	0.699091	0.006991
298.993000	0.699072	0.006991
298.995000	0.699043	0.006990
298.999000	0.699030	0.006990
299.006000	0.698986	0.006990
299.015000	0.698953	0.006990
299.025000	0.698909	0.006989
299.034000	0.698868	0.006989
299.044000	0.698807	0.006988
299.058000	0.698741	0.006987
299.077000	0.698676	0.006987
299.094000	0.698625	0.006986
299.114000	0.698592	0.006986
299.139000	0.698593	0.006986
299.168000	0.698665	0.006987
299.201000	0.698678	0.006987
299.239000	0.698727	0.006987
299.280000	0.698781	0.006988
299.320000	0.698794	0.006988
299.361000	0.698754	0.006988
299.404000	0.698687	0.006987
299.442000	0.698595	0.006986
299.476000	0.698465	0.006985
299.510000	0.698360	0.006984
299.541000	0.698262	0.006983
299.573000	0.698162	0.006982
299.602000	0.698076	0.006981
299.631000	0.698001	0.006980
299.658000	0.697955	0.006980
299.684000	0.697944	0.006979
299.709000	0.697972	0.006980
299.732000	0.698030	0.006980
299.753000	0.698081	0.006981
299.766000	0.698180	0.006982
299.777000	0.698295	0.006983
299.787000	0.698549	0.006985
299.796000	0.698699	0.006987
299.803000	0.698802	0.006988
299.810000	0.698933	0.006989
299.811000	0.699065	0.006991
299.810000	0.699125	0.006991
299.803000	0.699200	0.006992
299.798000	0.699268	0.006993
299.792000	0.699350	0.006994
299.783000	0.699400	0.006994
299.777000	0.699441	0.006994
299.774000	0.699454	0.006995
299.772000	0.699445	0.006994
299.771000	0.699393	0.006994
299.771000	0.699316	0.006993
299.775000	0.699211	0.006992
299.780000	0.699064	0.006991
299.788000	0.698849	0.006988
299.797000	0.698602	0.006986
299.811000	0.698332	0.006983
299.828000	0.698061	0.006981
299.843000	0.697778	0.006978
299.850000	0.697488	0.006975
299.852000	0.697195	0.006972
299.849000	0.696927	0.006969
299.839000	0.696569	0.006966
299.827000	0.696583	0.006966
299.814000	0.696362	0.006964
299.806000	0.696172	0.006962
299.799000	0.696003	0.006960
299.789000	0.695859	0.006959
299.777000	0.695776	0.006958
299.762000	0.695707	0.006957
299.749000	0.695666	0.006957
299.737000	0.695658	0.006957
299.732000	0.695667	0.006957
299.734000	0.695718	0.006957
299.740000	0.695787	0.006958
299.756000	0.695879	0.006959
299.775000	0.696002	0.006960
299.798000	0.696157	0.006962
299.825000	0.696369	0.006964
299.854000	0.696607	0.006966
299.886000	0.696889	0.006969
299.917000	0.697217	0.006972
299.945000	0.697561	0.006976
299.966000	0.697903	0.006979
299.985000	0.698240	0.006982
300.001000	0.698572	0.006986
300.010000	0.698891	0.006989
300.016000	0.699164	0.006992
300.030000	0.699469	0.006995
300.048000	0.699719	0.006997
300.067000	0.699953	0.007000
300.084000	0.700153	0.007002
300.098000	0.700331	0.007003
300.111000	0.700474	0.007005
300.121000	0.700567	0.007006
300.130000	0.700672	0.007007
300.135000	0.700733	0.007007
300.136000	0.700740	0.007007
300.138000	0.700729	0.007007
300.144000	0.700688	0.007007
300.150000	0.700626	0.007006
300.162000	0.700529	0.007005
300.176000	0.700446	0.007004
300.192000	0.700348	0.007003
300.204000	0.700256	0.007003
300.218000	0.700154	0.007002
300.226000	0.700065	0.007001
300.228000	0.699959	0.007000
300.226000	0.699858	0.006999
300.220000	0.699776	0.006998
300.216000	0.699718	0.006997
300.214000	0.699700	0.006997
300.215000	0.699739	0.006997
300.217000	0.699734	0.006997
300.222000	0.699727	0.006997
300.228000	0.699666	0.006997
300.239000	0.699583	0.006996
300.251000	0.699496	0.006995
300.269000	0.699368	0.006994
300.289000	0.699204	0.006992
300.312000	0.699035	0.006990
300.339000	0.698848	0.006988
300.368000	0.698679	0.006987
300.396000	0.698504	0.006985
300.426000	0.698366	0.006984
300.455000	0.698216	0.006982
