Temperature	Strain_p	Strain
305.532000	0.361112	0.003611
305.528000	0.361112	0.003611
305.516000	0.361092	0.003611
305.505000	0.361001	0.003610
305.496000	0.360850	0.003609
305.487000	0.360835	0.003608
305.478000	0.360586	0.003606
305.470000	0.360309	0.003603
305.455000	0.360030	0.003600
305.440000	0.359770	0.003598
305.424000	0.359536	0.003595
305.408000	0.359360	0.003594
305.393000	0.359300	0.003593
305.375000	0.359252	0.003593
305.353000	0.359269	0.003593
305.327000	0.359350	0.003594
305.297000	0.359485	0.003595
305.269000	0.359641	0.003596
305.242000	0.359837	0.003598
305.220000	0.360035	0.003600
305.198000	0.360252	0.003603
305.174000	0.360451	0.003605
305.147000	0.360620	0.003606
305.114000	0.360775	0.003608
305.078000	0.360854	0.003609
305.038000	0.360970	0.003610
304.997000	0.361041	0.003610
304.962000	0.361087	0.003611
304.927000	0.361095	0.003611
304.890000	0.361089	0.003611
304.853000	0.361083	0.003611
304.815000	0.361038	0.003610
304.777000	0.360962	0.003610
304.742000	0.360872	0.003609
304.708000	0.360748	0.003607
304.674000	0.360574	0.003606
304.643000	0.360455	0.003605
304.608000	0.360245	0.003602
304.569000	0.360015	0.003600
304.529000	0.359792	0.003598
304.485000	0.359600	0.003596
304.438000	0.359441	0.003594
304.388000	0.359321	0.003593
304.333000	0.359355	0.003594
304.275000	0.359304	0.003593
304.212000	0.359266	0.003593
304.149000	0.359207	0.003592
304.086000	0.359179	0.003592
304.027000	0.359141	0.003591
303.971000	0.359133	0.003591
303.917000	0.359076	0.003591
303.872000	0.359025	0.003590
303.832000	0.358963	0.003590
303.798000	0.358933	0.003589
303.768000	0.358907	0.003589
303.732000	0.358891	0.003589
303.690000	0.358861	0.003589
303.638000	0.358831	0.003588
303.579000	0.358782	0.003588
303.513000	0.358694	0.003587
303.445000	0.358594	0.003586
303.382000	0.358436	0.003584
303.320000	0.358432	0.003584
303.262000	0.358203	0.003582
303.208000	0.358016	0.003580
303.156000	0.357883	0.003579
303.101000	0.357877	0.003579
303.042000	0.357852	0.003579
302.980000	0.357885	0.003579
302.918000	0.357992	0.003580
302.855000	0.358170	0.003582
302.786000	0.358354	0.003584
302.717000	0.358564	0.003586
302.643000	0.358772	0.003588
302.564000	0.358995	0.003590
302.487000	0.359186	0.003592
302.412000	0.359368	0.003594
302.338000	0.359540	0.003595
302.265000	0.359653	0.003597
302.192000	0.359719	0.003597
302.119000	0.359699	0.003597
302.045000	0.359548	0.003595
301.968000	0.359470	0.003595
301.890000	0.359349	0.003593
301.810000	0.359198	0.003592
301.729000	0.359034	0.003590
301.645000	0.358837	0.003588
301.558000	0.358612	0.003586
301.471000	0.358357	0.003584
301.381000	0.358073	0.003581
301.289000	0.357784	0.003578
301.194000	0.357397	0.003574
301.094000	0.357004	0.003570
300.994000	0.356601	0.003566
300.894000	0.356192	0.003562
300.794000	0.355795	0.003558
300.695000	0.355396	0.003554
300.599000	0.355055	0.003551
300.505000	0.354815	0.003548
300.414000	0.354697	0.003547
300.323000	0.354884	0.003549
300.226000	0.354998	0.003550
300.124000	0.355196	0.003552
300.021000	0.355459	0.003555
299.920000	0.355760	0.003558
299.822000	0.355899	0.003559
299.728000	0.356294	0.003563
299.637000	0.356718	0.003567
299.546000	0.357052	0.003571
299.457000	0.357247	0.003572
299.369000	0.357323	0.003573
299.278000	0.357287	0.003573
299.192000	0.357158	0.003572
299.110000	0.356954	0.003570
299.033000	0.356658	0.003567
298.962000	0.356269	0.003563
298.895000	0.355825	0.003558
298.826000	0.355380	0.003554
298.756000	0.354925	0.003549
298.681000	0.354431	0.003544
298.602000	0.354023	0.003540
298.520000	0.353674	0.003537
298.431000	0.353393	0.003534
298.337000	0.353199	0.003532
298.242000	0.353157	0.003532
298.144000	0.353157	0.003532
298.044000	0.353232	0.003532
297.941000	0.353369	0.003534
297.830000	0.353558	0.003536
297.715000	0.353765	0.003538
297.604000	0.353984	0.003540
297.501000	0.354228	0.003542
297.403000	0.354481	0.003545
297.307000	0.354737	0.003547
297.211000	0.355019	0.003550
297.113000	0.355326	0.003553
297.009000	0.355605	0.003556
296.899000	0.355877	0.003559
296.790000	0.356101	0.003561
296.681000	0.356229	0.003562
296.569000	0.356302	0.003563
296.457000	0.356323	0.003563
296.345000	0.356307	0.003563
296.233000	0.356133	0.003561
296.123000	0.356021	0.003560
296.019000	0.355847	0.003558
295.920000	0.355615	0.003556
295.820000	0.355312	0.003553
295.718000	0.354929	0.003549
295.615000	0.354454	0.003545
295.517000	0.353952	0.003540
295.422000	0.353469	0.003535
295.329000	0.352980	0.003530
295.237000	0.352496	0.003525
295.142000	0.352027	0.003520
295.046000	0.351565	0.003516
294.948000	0.351159	0.003512
294.853000	0.350838	0.003508
294.763000	0.350596	0.003506
294.678000	0.350538	0.003505
294.597000	0.350584	0.003506
294.521000	0.350756	0.003508
294.443000	0.350847	0.003508
294.364000	0.351173	0.003512
294.287000	0.351480	0.003515
294.210000	0.351737	0.003517
294.135000	0.351932	0.003519
294.063000	0.352036	0.003520
293.991000	0.352040	0.003520
293.921000	0.351957	0.003520
293.845000	0.351776	0.003518
293.764000	0.351566	0.003516
293.677000	0.351295	0.003513
293.589000	0.350995	0.003510
293.498000	0.350670	0.003507
293.407000	0.350349	0.003503
293.312000	0.350027	0.003500
293.212000	0.349736	0.003497
293.110000	0.349507	0.003495
293.004000	0.349341	0.003493
292.893000	0.349245	0.003492
292.783000	0.349283	0.003493
292.672000	0.349265	0.003493
292.559000	0.349270	0.003493
292.442000	0.349291	0.003493
292.325000	0.349307	0.003493
292.211000	0.349338	0.003493
292.096000	0.349377	0.003494
291.982000	0.349437	0.003494
291.865000	0.349533	0.003495
291.746000	0.349671	0.003497
291.622000	0.349870	0.003499
291.496000	0.350074	0.003501
291.371000	0.350305	0.003503
291.248000	0.350558	0.003506
291.134000	0.350759	0.003508
291.025000	0.351027	0.003510
290.915000	0.351275	0.003513
290.804000	0.351444	0.003514
290.688000	0.351523	0.003515
290.574000	0.351342	0.003513
290.463000	0.351246	0.003512
290.353000	0.351058	0.003511
290.250000	0.350786	0.003508
290.149000	0.350473	0.003505
290.048000	0.350133	0.003501
289.944000	0.349679	0.003497
289.841000	0.349124	0.003491
289.740000	0.348591	0.003486
289.643000	0.348109	0.003481
289.547000	0.347690	0.003477
289.456000	0.347330	0.003473
289.367000	0.347023	0.003470
289.277000	0.346777	0.003468
289.182000	0.346621	0.003466
289.083000	0.346544	0.003465
288.983000	0.346564	0.003466
288.886000	0.346646	0.003466
288.786000	0.346787	0.003468
288.683000	0.347081	0.003471
288.573000	0.347352	0.003474
288.457000	0.347622	0.003476
288.338000	0.347893	0.003479
288.220000	0.348121	0.003481
288.099000	0.348292	0.003483
287.971000	0.348391	0.003484
287.840000	0.348422	0.003484
287.707000	0.348352	0.003484
287.575000	0.348280	0.003483
287.446000	0.348124	0.003481
287.318000	0.347958	0.003480
287.193000	0.347745	0.003477
287.064000	0.347523	0.003475
286.932000	0.347336	0.003473
286.797000	0.347068	0.003471
286.658000	0.346789	0.003468
286.516000	0.346531	0.003465
286.369000	0.346221	0.003462
286.215000	0.345986	0.003460
286.061000	0.345845	0.003458
285.911000	0.345732	0.003457
285.764000	0.345657	0.003457
285.617000	0.345590	0.003456
285.468000	0.345528	0.003455
285.319000	0.345499	0.003455
285.177000	0.345513	0.003455
285.043000	0.345533	0.003455
284.918000	0.345573	0.003456
284.797000	0.345639	0.003456
284.677000	0.345705	0.003457
284.555000	0.345762	0.003458
284.436000	0.345786	0.003458
284.323000	0.345762	0.003458
284.214000	0.345735	0.003457
284.106000	0.345707	0.003457
284.003000	0.345699	0.003457
283.901000	0.345675	0.003457
283.797000	0.345578	0.003456
283.692000	0.345438	0.003454
283.592000	0.345144	0.003451
283.493000	0.344777	0.003448
283.394000	0.344326	0.003443
283.290000	0.343786	0.003438
283.177000	0.343230	0.003432
283.064000	0.342666	0.003427
282.951000	0.342136	0.003421
282.839000	0.341629	0.003416
282.727000	0.341190	0.003412
282.616000	0.340824	0.003408
282.505000	0.340548	0.003405
282.386000	0.340341	0.003403
282.262000	0.340278	0.003403
282.138000	0.340366	0.003404
282.014000	0.340603	0.003406
281.892000	0.340952	0.003410
281.769000	0.341378	0.003414
281.643000	0.341848	0.003418
281.515000	0.342324	0.003423
281.389000	0.342775	0.003428
281.263000	0.343187	0.003432
281.138000	0.343510	0.003435
281.014000	0.343759	0.003438
280.889000	0.343890	0.003439
280.759000	0.343937	0.003439
280.627000	0.343922	0.003439
280.493000	0.343837	0.003438
280.356000	0.343689	0.003437
280.215000	0.343447	0.003434
280.071000	0.343128	0.003431
279.929000	0.342790	0.003428
279.790000	0.342367	0.003424
279.654000	0.341924	0.003419
279.517000	0.341474	0.003415
279.386000	0.341027	0.003410
279.261000	0.340612	0.003406
279.138000	0.340256	0.003403
279.014000	0.339869	0.003399
278.891000	0.339491	0.003395
278.768000	0.339113	0.003391
278.646000	0.338746	0.003387
278.525000	0.338381	0.003384
278.405000	0.338041	0.003380
278.283000	0.337746	0.003377
278.158000	0.337544	0.003375
278.032000	0.337425	0.003374
277.908000	0.337376	0.003374
277.784000	0.337421	0.003374
277.665000	0.337589	0.003376
277.548000	0.337846	0.003378
277.431000	0.338176	0.003382
277.309000	0.338568	0.003386
277.187000	0.339004	0.003390
277.067000	0.339444	0.003394
276.954000	0.339840	0.003398
276.847000	0.340204	0.003402
276.736000	0.340502	0.003405
276.626000	0.340703	0.003407
276.515000	0.340786	0.003408
276.401000	0.340775	0.003408
276.284000	0.340633	0.003406
276.166000	0.340385	0.003404
276.048000	0.340029	0.003400
275.927000	0.339603	0.003396
275.804000	0.339132	0.003391
275.677000	0.338651	0.003387
275.549000	0.338157	0.003382
275.417000	0.337680	0.003377
275.282000	0.337189	0.003372
275.144000	0.336744	0.003367
275.004000	0.336332	0.003363
274.859000	0.335961	0.003360
274.708000	0.335699	0.003357
274.557000	0.335526	0.003355
274.410000	0.335397	0.003354
274.262000	0.335422	0.003354
274.115000	0.335508	0.003355
273.969000	0.335632	0.003356
273.828000	0.335847	0.003358
273.690000	0.336044	0.003360
273.551000	0.336212	0.003362
273.412000	0.336363	0.003364
273.271000	0.336463	0.003365
273.129000	0.336518	0.003365
272.985000	0.336496	0.003365
272.841000	0.336417	0.003364
272.699000	0.336286	0.003363
272.559000	0.336120	0.003361
272.420000	0.335978	0.003360
272.285000	0.335826	0.003358
272.154000	0.335705	0.003357
272.023000	0.335684	0.003357
271.896000	0.335614	0.003356
271.769000	0.335545	0.003355
271.639000	0.335476	0.003355
271.511000	0.335413	0.003354
271.381000	0.335356	0.003354
271.248000	0.335259	0.003353
271.111000	0.335166	0.003352
270.972000	0.335084	0.003351
270.833000	0.335002	0.003350
270.696000	0.334914	0.003349
270.557000	0.334816	0.003348
270.420000	0.334733	0.003347
270.285000	0.334659	0.003347
270.151000	0.334619	0.003346
270.018000	0.334662	0.003347
269.886000	0.334771	0.003348
269.750000	0.334969	0.003350
269.611000	0.335244	0.003352
269.464000	0.335530	0.003355
269.314000	0.335827	0.003358
269.164000	0.336040	0.003360
269.015000	0.336160	0.003362
268.869000	0.336136	0.003361
268.727000	0.335984	0.003360
268.589000	0.335759	0.003358
268.455000	0.335471	0.003355
268.328000	0.335132	0.003351
268.204000	0.334747	0.003347
268.081000	0.334326	0.003343
267.956000	0.333937	0.003339
267.829000	0.333556	0.003336
267.697000	0.333215	0.003332
267.564000	0.332789	0.003328
267.436000	0.332495	0.003325
267.314000	0.332243	0.003322
267.197000	0.332068	0.003321
267.086000	0.331981	0.003320
266.976000	0.331931	0.003319
266.864000	0.331920	0.003319
266.750000	0.332003	0.003320
266.630000	0.332097	0.003321
266.505000	0.332196	0.003322
266.384000	0.332298	0.003323
266.268000	0.332403	0.003324
266.153000	0.332527	0.003325
266.033000	0.332629	0.003326
265.904000	0.332721	0.003327
265.772000	0.332802	0.003328
265.637000	0.332866	0.003329
265.501000	0.332930	0.003329
265.364000	0.332940	0.003329
265.228000	0.332896	0.003329
265.097000	0.332819	0.003328
264.971000	0.332711	0.003327
264.852000	0.332573	0.003326
264.738000	0.332432	0.003324
264.625000	0.332288	0.003323
264.514000	0.332153	0.003322
264.402000	0.332065	0.003321
264.289000	0.331972	0.003320
264.173000	0.331840	0.003318
264.054000	0.331659	0.003317
263.934000	0.331458	0.003315
263.818000	0.331209	0.003312
263.701000	0.330951	0.003310
263.586000	0.330700	0.003307
263.472000	0.330470	0.003305
263.358000	0.330225	0.003302
263.247000	0.329981	0.003300
263.138000	0.329740	0.003297
263.027000	0.329515	0.003295
262.917000	0.329347	0.003293
262.805000	0.329235	0.003292
262.684000	0.329144	0.003291
262.559000	0.329150	0.003292
262.428000	0.329156	0.003292
262.295000	0.329232	0.003292
262.160000	0.329249	0.003292
262.020000	0.329285	0.003293
261.878000	0.329277	0.003293
261.741000	0.329195	0.003292
261.609000	0.329039	0.003290
261.482000	0.328789	0.003288
261.361000	0.328447	0.003284
261.244000	0.328042	0.003280
261.129000	0.327622	0.003276
261.018000	0.327175	0.003272
260.908000	0.326732	0.003267
260.797000	0.326338	0.003263
260.685000	0.326012	0.003260
260.573000	0.325714	0.003257
260.461000	0.325494	0.003255
260.348000	0.325388	0.003254
260.235000	0.325410	0.003254
260.125000	0.325468	0.003255
260.015000	0.325613	0.003256
259.903000	0.325764	0.003258
259.786000	0.325954	0.003260
259.666000	0.326139	0.003261
259.544000	0.326277	0.003263
259.419000	0.326454	0.003265
259.289000	0.326662	0.003267
259.156000	0.326847	0.003268
259.021000	0.327018	0.003270
258.884000	0.327134	0.003271
258.747000	0.327226	0.003272
258.609000	0.327300	0.003273
258.470000	0.327305	0.003273
258.325000	0.327252	0.003273
258.174000	0.327192	0.003272
258.019000	0.327120	0.003271
257.861000	0.327054	0.003271
257.699000	0.326963	0.003270
257.540000	0.326873	0.003269
257.383000	0.326712	0.003267
257.231000	0.326515	0.003265
257.085000	0.326235	0.003262
256.933000	0.325913	0.003259
256.777000	0.325543	0.003255
256.618000	0.325174	0.003252
256.460000	0.324787	0.003248
256.309000	0.324398	0.003244
256.164000	0.324032	0.003240
256.029000	0.323707	0.003237
255.901000	0.323402	0.003234
255.779000	0.323178	0.003232
255.658000	0.322937	0.003229
255.533000	0.322745	0.003227
255.400000	0.322619	0.003226
255.263000	0.322558	0.003226
255.125000	0.322544	0.003225
254.988000	0.322573	0.003226
254.849000	0.322756	0.003228
254.704000	0.322843	0.003228
254.553000	0.322922	0.003229
254.400000	0.322979	0.003230
254.249000	0.322995	0.003230
254.100000	0.323000	0.003230
253.951000	0.322926	0.003229
253.800000	0.322796	0.003228
253.646000	0.322625	0.003226
253.490000	0.322411	0.003224
253.333000	0.322160	0.003222
253.170000	0.321869	0.003219
253.002000	0.321563	0.003216
252.839000	0.321252	0.003213
252.680000	0.320938	0.003209
252.527000	0.320649	0.003206
252.378000	0.320386	0.003204
252.231000	0.320181	0.003202
252.086000	0.320027	0.003200
251.944000	0.319967	0.003200
251.801000	0.319925	0.003199
251.662000	0.319905	0.003199
251.525000	0.319933	0.003199
251.386000	0.319975	0.003200
251.243000	0.320034	0.003200
251.098000	0.320060	0.003201
250.952000	0.320024	0.003200
250.804000	0.319958	0.003200
250.655000	0.319891	0.003199
250.502000	0.319832	0.003198
250.346000	0.320014	0.003200
250.190000	0.319993	0.003200
250.036000	0.320040	0.003200
249.883000	0.320113	0.003201
249.735000	0.320221	0.003202
249.589000	0.320335	0.003203
249.448000	0.320497	0.003205
249.309000	0.320649	0.003206
249.172000	0.320805	0.003208
249.039000	0.320848	0.003208
248.910000	0.320823	0.003208
248.779000	0.320717	0.003207
248.644000	0.320500	0.003205
248.511000	0.320241	0.003202
248.382000	0.319959	0.003200
248.256000	0.319659	0.003197
248.127000	0.319368	0.003194
247.998000	0.319080	0.003191
247.867000	0.318728	0.003187
247.736000	0.318514	0.003185
247.601000	0.318362	0.003184
247.465000	0.318262	0.003183
247.330000	0.318256	0.003183
247.193000	0.318307	0.003183
247.054000	0.318425	0.003184
246.915000	0.318572	0.003186
246.776000	0.318714	0.003187
246.635000	0.318835	0.003188
246.489000	0.318974	0.003190
246.343000	0.319076	0.003191
246.202000	0.319104	0.003191
246.062000	0.319041	0.003190
245.925000	0.318959	0.003190
245.792000	0.318834	0.003188
245.658000	0.318614	0.003186
245.521000	0.318430	0.003184
245.376000	0.318221	0.003182
245.228000	0.317943	0.003179
245.078000	0.317701	0.003177
244.930000	0.317463	0.003175
244.789000	0.317230	0.003172
244.654000	0.316978	0.003170
244.521000	0.316762	0.003168
244.384000	0.316551	0.003166
244.241000	0.316350	0.003164
244.099000	0.316190	0.003162
243.962000	0.316072	0.003161
243.829000	0.315945	0.003159
243.697000	0.315860	0.003159
243.562000	0.315745	0.003157
243.425000	0.315620	0.003156
243.284000	0.315463	0.003155
243.145000	0.315286	0.003153
243.006000	0.314978	0.003150
242.871000	0.314776	0.003148
242.738000	0.314550	0.003146
242.609000	0.314339	0.003143
242.483000	0.314113	0.003141
242.352000	0.313888	0.003139
242.219000	0.313706	0.003137
242.080000	0.313557	0.003136
241.939000	0.313429	0.003134
241.795000	0.313333	0.003133
241.648000	0.313226	0.003132
241.497000	0.313199	0.003132
241.345000	0.313193	0.003132
241.191000	0.313191	0.003132
241.035000	0.313184	0.003132
240.880000	0.313196	0.003132
240.729000	0.313250	0.003133
240.580000	0.313323	0.003133
240.430000	0.313406	0.003134
240.281000	0.313509	0.003135
240.131000	0.313608	0.003136
239.986000	0.313735	0.003137
239.843000	0.313903	0.003139
239.702000	0.314101	0.003141
239.561000	0.314346	0.003143
239.418000	0.314602	0.003146
239.272000	0.314847	0.003148
239.132000	0.315039	0.003150
238.995000	0.315170	0.003152
238.858000	0.315228	0.003152
238.721000	0.315228	0.003152
238.582000	0.315174	0.003152
238.441000	0.315046	0.003150
238.300000	0.314851	0.003149
238.155000	0.314567	0.003146
238.004000	0.314235	0.003142
237.849000	0.313843	0.003138
237.688000	0.313541	0.003135
237.530000	0.313086	0.003131
237.373000	0.312640	0.003126
237.220000	0.312203	0.003122
237.070000	0.311773	0.003118
236.928000	0.311391	0.003114
236.789000	0.311052	0.003111
236.651000	0.310757	0.003108
236.516000	0.310508	0.003105
236.383000	0.310310	0.003103
236.258000	0.309920	0.003099
236.133000	0.309803	0.003098
236.015000	0.309678	0.003097
235.903000	0.309555	0.003096
235.792000	0.309431	0.003094
235.679000	0.309302	0.003093
235.567000	0.309212	0.003092
235.452000	0.309187	0.003092
235.333000	0.309245	0.003092
235.214000	0.309420	0.003094
235.095000	0.309655	0.003097
234.974000	0.309942	0.003099
234.849000	0.310243	0.003102
234.720000	0.310534	0.003105
234.583000	0.310818	0.003108
234.438000	0.311088	0.003111
234.290000	0.311322	0.003113
234.134000	0.311526	0.003115
233.982000	0.311782	0.003118
233.836000	0.311892	0.003119
233.695000	0.311935	0.003119
233.551000	0.311932	0.003119
233.408000	0.311715	0.003117
233.267000	0.311535	0.003115
233.129000	0.311256	0.003113
232.992000	0.310921	0.003109
232.854000	0.310539	0.003105
232.716000	0.310142	0.003101
232.576000	0.309747	0.003097
232.434000	0.309350	0.003094
232.289000	0.308968	0.003090
232.142000	0.308587	0.003086
231.993000	0.308224	0.003082
231.847000	0.307869	0.003079
231.696000	0.307586	0.003076
231.544000	0.307237	0.003072
231.392000	0.306911	0.003069
231.242000	0.306629	0.003066
231.093000	0.306340	0.003063
230.945000	0.306030	0.003060
230.797000	0.305775	0.003058
230.650000	0.305531	0.003055
230.505000	0.305351	0.003054
230.360000	0.305251	0.003053
230.218000	0.305191	0.003052
230.079000	0.305180	0.003052
229.942000	0.305233	0.003052
229.808000	0.305336	0.003053
229.677000	0.305459	0.003055
229.546000	0.305634	0.003056
229.418000	0.305867	0.003059
229.288000	0.306127	0.003061
229.160000	0.306401	0.003064
229.034000	0.306805	0.003068
228.908000	0.307083	0.003071
228.779000	0.307337	0.003073
228.644000	0.307560	0.003076
228.507000	0.307783	0.003078
228.369000	0.308000	0.003080
228.230000	0.308187	0.003082
228.090000	0.308369	0.003084
227.952000	0.308513	0.003085
227.819000	0.308601	0.003086
227.690000	0.308616	0.003086
227.566000	0.308561	0.003086
227.445000	0.308420	0.003084
227.323000	0.308203	0.003082
227.202000	0.307917	0.003079
227.079000	0.307576	0.003076
226.956000	0.307150	0.003072
226.829000	0.306669	0.003067
226.702000	0.306155	0.003062
226.575000	0.305628	0.003056
226.442000	0.305098	0.003051
226.301000	0.304546	0.003045
226.151000	0.304029	0.003040
225.995000	0.303519	0.003035
225.832000	0.303035	0.003030
225.668000	0.302610	0.003026
225.504000	0.302295	0.003023
225.340000	0.302087	0.003021
225.176000	0.301986	0.003020
225.012000	0.301970	0.003020
224.850000	0.302038	0.003020
224.688000	0.302173	0.003022
224.526000	0.302357	0.003024
224.369000	0.302604	0.003026
224.219000	0.302881	0.003029
224.072000	0.303167	0.003032
223.930000	0.303314	0.003033
223.790000	0.303452	0.003035
223.650000	0.303703	0.003037
223.515000	0.303896	0.003039
223.377000	0.304058	0.003041
223.237000	0.304180	0.003042
223.094000	0.304261	0.003043
222.953000	0.304298	0.003043
222.813000	0.304301	0.003043
222.677000	0.304263	0.003043
222.541000	0.304221	0.003042
222.407000	0.304136	0.003041
222.274000	0.304030	0.003040
222.143000	0.303918	0.003039
222.014000	0.303810	0.003038
221.886000	0.303697	0.003037
221.760000	0.303630	0.003036
221.635000	0.303498	0.003035
221.512000	0.303431	0.003034
221.388000	0.303219	0.003032
221.267000	0.302967	0.003030
221.144000	0.302703	0.003027
221.019000	0.302441	0.003024
220.895000	0.302179	0.003022
220.769000	0.302002	0.003020
220.643000	0.301824	0.003018
220.516000	0.301649	0.003016
220.390000	0.301480	0.003015
220.263000	0.301306	0.003013
220.135000	0.301120	0.003011
220.006000	0.300929	0.003009
219.870000	0.300721	0.003007
219.733000	0.300485	0.003005
219.595000	0.300371	0.003004
219.455000	0.300121	0.003001
219.314000	0.299885	0.002999
219.171000	0.299493	0.002995
219.027000	0.299269	0.002993
218.882000	0.299070	0.002991
218.732000	0.298899	0.002989
218.582000	0.298782	0.002988
218.430000	0.298712	0.002987
218.277000	0.298695	0.002987
218.123000	0.298741	0.002987
217.970000	0.298839	0.002988
217.818000	0.298969	0.002990
217.668000	0.299128	0.002991
217.517000	0.299311	0.002993
217.365000	0.299501	0.002995
217.210000	0.299694	0.002997
217.048000	0.299911	0.002999
216.885000	0.300093	0.003001
216.723000	0.300288	0.003003
216.562000	0.300422	0.003004
216.402000	0.300494	0.003005
216.244000	0.300550	0.003006
216.086000	0.300531	0.003005
215.927000	0.300463	0.003005
215.770000	0.300375	0.003004
215.616000	0.300267	0.003003
215.466000	0.300146	0.003001
215.321000	0.300007	0.003000
215.181000	0.299861	0.002999
215.043000	0.299711	0.002997
214.902000	0.299551	0.002996
214.758000	0.299400	0.002994
214.613000	0.299260	0.002993
214.466000	0.299126	0.002991
214.318000	0.298983	0.002990
214.169000	0.298862	0.002989
214.021000	0.298745	0.002987
213.874000	0.298643	0.002986
213.727000	0.298601	0.002986
213.579000	0.298616	0.002986
213.431000	0.298705	0.002987
213.284000	0.298878	0.002989
213.141000	0.299117	0.002991
213.001000	0.299381	0.002994
212.862000	0.299667	0.002997
212.726000	0.299925	0.002999
212.589000	0.300202	0.003002
212.449000	0.300465	0.003005
212.308000	0.300695	0.003007
212.168000	0.300864	0.003009
212.029000	0.300985	0.003010
211.891000	0.301064	0.003011
211.754000	0.301039	0.003010
211.614000	0.300947	0.003009
211.471000	0.300794	0.003008
211.328000	0.300580	0.003006
211.184000	0.300295	0.003003
211.038000	0.299982	0.003000
210.894000	0.299642	0.002996
210.752000	0.299305	0.002993
210.610000	0.299029	0.002990
210.467000	0.298722	0.002987
210.330000	0.298480	0.002985
210.197000	0.298281	0.002983
210.067000	0.298154	0.002982
209.938000	0.298125	0.002981
209.809000	0.298281	0.002983
209.680000	0.298362	0.002984
209.551000	0.298470	0.002985
209.420000	0.298612	0.002986
209.293000	0.298745	0.002987
209.166000	0.298871	0.002989
209.040000	0.298987	0.002990
208.914000	0.299092	0.002991
208.783000	0.299188	0.002992
208.648000	0.299283	0.002993
208.510000	0.299376	0.002994
208.371000	0.299472	0.002995
208.229000	0.299614	0.002996
208.086000	0.299768	0.002998
207.946000	0.299906	0.002999
207.806000	0.300097	0.003001
207.667000	0.300328	0.003003
207.530000	0.300604	0.003006
207.397000	0.300797	0.003008
207.269000	0.301099	0.003011
207.143000	0.301364	0.003014
207.017000	0.301574	0.003016
206.895000	0.301715	0.003017
206.778000	0.301803	0.003018
206.662000	0.301792	0.003018
206.551000	0.301723	0.003017
206.440000	0.301618	0.003016
206.331000	0.301486	0.003015
206.223000	0.301337	0.003013
206.115000	0.301212	0.003012
206.006000	0.301088	0.003011
205.895000	0.301089	0.003011
205.781000	0.300997	0.003010
205.669000	0.300962	0.003010
205.554000	0.300964	0.003010
205.443000	0.301023	0.003010
205.333000	0.301317	0.003013
205.221000	0.301554	0.003016
205.112000	0.301880	0.003019
205.004000	0.302310	0.003023
204.896000	0.302837	0.003028
204.790000	0.303446	0.003034
204.684000	0.304095	0.003041
204.576000	0.304736	0.003047
204.468000	0.305361	0.003054
204.358000	0.305962	0.003060
204.245000	0.306535	0.003065
204.127000	0.307091	0.003071
204.006000	0.307627	0.003076
203.883000	0.308142	0.003081
203.758000	0.308642	0.003086
203.631000	0.309125	0.003091
203.505000	0.309609	0.003096
203.378000	0.310070	0.003101
203.250000	0.310523	0.003105
203.122000	0.310964	0.003110
202.998000	0.311446	0.003114
202.872000	0.311941	0.003119
202.743000	0.312407	0.003124
202.612000	0.312862	0.003129
202.477000	0.313296	0.003133
202.338000	0.313697	0.003137
202.200000	0.314068	0.003141
202.064000	0.314406	0.003144
201.929000	0.314725	0.003147
201.795000	0.315021	0.003150
201.661000	0.315306	0.003153
201.522000	0.315586	0.003156
201.381000	0.315850	0.003159
201.240000	0.316087	0.003161
201.100000	0.316317	0.003163
200.954000	0.316513	0.003165
200.807000	0.316766	0.003168
200.659000	0.316905	0.003169
200.513000	0.317017	0.003170
200.369000	0.317109	0.003171
200.227000	0.317214	0.003172
200.086000	0.317378	0.003174
199.946000	0.317569	0.003176
199.801000	0.317829	0.003178
199.653000	0.318111	0.003181
199.507000	0.318437	0.003184
199.360000	0.318810	0.003188
199.217000	0.319251	0.003193
199.077000	0.319733	0.003197
198.935000	0.320255	0.003203
198.789000	0.320816	0.003208
198.642000	0.321409	0.003214
198.493000	0.322009	0.003220
198.343000	0.322604	0.003226
198.192000	0.323200	0.003232
198.039000	0.323764	0.003238
197.884000	0.324369	0.003244
197.726000	0.324924	0.003249
197.565000	0.325444	0.003254
197.404000	0.326045	0.003260
197.242000	0.326674	0.003267
197.080000	0.327320	0.003273
196.914000	0.328044	0.003280
196.750000	0.328776	0.003288
196.583000	0.329555	0.003296
196.417000	0.330377	0.003304
196.250000	0.331239	0.003312
196.081000	0.332139	0.003321
195.912000	0.333084	0.003331
195.744000	0.334081	0.003341
195.579000	0.335137	0.003351
195.416000	0.336242	0.003362
195.249000	0.337395	0.003374
195.086000	0.338599	0.003386
194.922000	0.339832	0.003398
194.757000	0.341138	0.003411
194.596000	0.342272	0.003423
194.436000	0.343598	0.003436
194.276000	0.344994	0.003450
194.116000	0.346430	0.003464
193.956000	0.347922	0.003479
193.796000	0.349485	0.003495
193.636000	0.351173	0.003512
193.476000	0.352989	0.003530
193.316000	0.354951	0.003550
193.157000	0.357061	0.003571
193.001000	0.359310	0.003593
192.846000	0.361681	0.003617
192.694000	0.364149	0.003641
192.545000	0.366717	0.003667
192.392000	0.369363	0.003694
192.237000	0.372060	0.003721
192.081000	0.374804	0.003748
191.922000	0.377551	0.003776
191.767000	0.380308	0.003803
191.611000	0.382963	0.003830
191.457000	0.385719	0.003857
191.307000	0.388408	0.003884
191.155000	0.391081	0.003911
191.009000	0.393722	0.003937
190.866000	0.396316	0.003963
190.723000	0.398812	0.003988
190.577000	0.401291	0.004013
190.428000	0.403647	0.004036
190.277000	0.405912	0.004059
190.128000	0.408125	0.004081
189.981000	0.410299	0.004103
189.836000	0.412484	0.004125
189.693000	0.414687	0.004147
189.549000	0.416931	0.004169
189.403000	0.419198	0.004192
189.256000	0.421491	0.004215
189.106000	0.423804	0.004238
188.954000	0.426150	0.004262
188.798000	0.428515	0.004285
188.644000	0.430898	0.004309
188.491000	0.433290	0.004333
188.338000	0.435757	0.004358
188.187000	0.438201	0.004382
188.036000	0.440664	0.004407
187.886000	0.443143	0.004431
187.737000	0.445644	0.004456
187.587000	0.448198	0.004482
187.439000	0.450812	0.004508
187.298000	0.453494	0.004535
187.163000	0.456259	0.004563
187.033000	0.459102	0.004591
186.906000	0.462033	0.004620
186.781000	0.465038	0.004650
186.658000	0.468167	0.004682
186.541000	0.471355	0.004714
186.426000	0.474601	0.004746
186.312000	0.477902	0.004779
186.197000	0.481248	0.004812
186.080000	0.484608	0.004846
185.964000	0.488004	0.004880
185.846000	0.491342	0.004913
185.729000	0.494792	0.004948
185.614000	0.498266	0.004983
185.501000	0.501765	0.005018
185.390000	0.505294	0.005053
185.279000	0.508835	0.005088
185.171000	0.512445	0.005124
185.059000	0.516170	0.005162
184.946000	0.519959	0.005200
184.830000	0.523864	0.005239
184.716000	0.527891	0.005279
184.602000	0.532047	0.005320
184.487000	0.536331	0.005363
184.372000	0.540763	0.005408
184.254000	0.545328	0.005453
184.132000	0.550025	0.005500
184.007000	0.554850	0.005549
183.878000	0.559812	0.005598
183.747000	0.564881	0.005649
183.617000	0.570079	0.005701
183.487000	0.575312	0.005753
183.358000	0.580663	0.005807
183.229000	0.586043	0.005860
183.100000	0.591451	0.005915
182.972000	0.596874	0.005969
182.845000	0.602338	0.006023
182.717000	0.607781	0.006078
182.589000	0.613259	0.006133
182.464000	0.618767	0.006188
182.340000	0.624316	0.006243
182.217000	0.629901	0.006299
182.094000	0.635528	0.006355
181.971000	0.641227	0.006412
181.847000	0.646992	0.006470
181.723000	0.652823	0.006528
181.601000	0.658746	0.006587
181.477000	0.664760	0.006648
181.353000	0.670841	0.006708
181.224000	0.677000	0.006770
181.092000	0.683244	0.006832
180.963000	0.689722	0.006897
180.836000	0.696101	0.006961
180.712000	0.702475	0.007025
180.594000	0.708898	0.007089
180.479000	0.715346	0.007153
180.363000	0.721800	0.007218
180.245000	0.728269	0.007283
180.126000	0.734749	0.007347
180.008000	0.741278	0.007413
179.894000	0.747833	0.007478
179.781000	0.754436	0.007544
179.674000	0.761104	0.007611
179.568000	0.767814	0.007678
179.463000	0.774595	0.007746
179.356000	0.781452	0.007815
179.249000	0.788413	0.007884
179.138000	0.795482	0.007955
179.026000	0.802664	0.008027
178.914000	0.809954	0.008100
178.802000	0.817364	0.008174
178.685000	0.824878	0.008249
178.569000	0.832501	0.008325
178.453000	0.840195	0.008402
178.332000	0.847956	0.008480
178.206000	0.855779	0.008558
178.080000	0.863687	0.008637
177.952000	0.871588	0.008716
177.824000	0.879574	0.008796
177.694000	0.887629	0.008876
177.563000	0.895726	0.008957
177.431000	0.903874	0.009039
177.299000	0.912060	0.009121
177.171000	0.920292	0.009203
177.047000	0.928576	0.009286
176.917000	0.936927	0.009369
176.787000	0.945343	0.009453
176.655000	0.953846	0.009538
176.524000	0.962441	0.009624
176.388000	0.971136	0.009711
176.249000	0.979934	0.009799
176.107000	0.988822	0.009888
175.964000	0.997754	0.009978
175.823000	1.006810	0.010068
175.685000	1.015940	0.010159
175.549000	1.025140	0.010251
175.413000	1.034400	0.010344
175.278000	1.043710	0.010437
175.146000	1.053070	0.010531
175.015000	1.062490	0.010625
174.889000	1.071950	0.010720
174.762000	1.081450	0.010815
174.638000	1.090980	0.010910
174.517000	1.100540	0.011005
174.394000	1.110080	0.011101
174.270000	1.119640	0.011196
174.146000	1.129220	0.011292
174.021000	1.138860	0.011389
173.897000	1.148550	0.011486
173.771000	1.158320	0.011583
173.643000	1.168170	0.011682
173.513000	1.178110	0.011781
173.384000	1.188160	0.011882
173.256000	1.198330	0.011983
173.124000	1.208590	0.012086
172.991000	1.218970	0.012190
172.857000	1.229480	0.012295
172.723000	1.240090	0.012401
172.588000	1.250740	0.012507
172.451000	1.261490	0.012615
172.313000	1.272280	0.012723
172.173000	1.283090	0.012831
172.035000	1.293880	0.012939
171.899000	1.304660	0.013047
171.764000	1.315400	0.013154
171.630000	1.326110	0.013261
171.495000	1.336770	0.013368
171.362000	1.347410	0.013474
171.226000	1.357990	0.013580
171.090000	1.368530	0.013685
170.952000	1.379030	0.013790
170.817000	1.389530	0.013895
170.684000	1.400040	0.014000
170.553000	1.410550	0.014106
170.422000	1.421080	0.014211
170.290000	1.431760	0.014318
170.160000	1.442320	0.014423
170.027000	1.452870	0.014529
169.893000	1.463440	0.014634
169.759000	1.474030	0.014740
169.624000	1.484640	0.014846
169.490000	1.495320	0.014953
169.358000	1.506030	0.015060
169.226000	1.516750	0.015168
169.096000	1.527450	0.015275
168.964000	1.538120	0.015381
168.837000	1.548760	0.015488
168.708000	1.559340	0.015593
168.576000	1.569900	0.015699
168.448000	1.580410	0.015804
168.322000	1.590870	0.015909
168.195000	1.601300	0.016013
168.070000	1.611700	0.016117
167.947000	1.622030	0.016220
167.825000	1.632420	0.016324
167.702000	1.642790	0.016428
167.580000	1.653150	0.016532
167.458000	1.663530	0.016635
167.332000	1.673910	0.016739
167.203000	1.684290	0.016843
167.078000	1.694700	0.016947
166.955000	1.705130	0.017051
166.833000	1.715550	0.017156
166.709000	1.725980	0.017260
166.588000	1.736390	0.017364
166.469000	1.746780	0.017468
166.350000	1.757120	0.017571
166.230000	1.767400	0.017674
166.109000	1.777630	0.017776
165.987000	1.787800	0.017878
165.864000	1.797910	0.017979
165.739000	1.807970	0.018080
165.614000	1.817980	0.018180
165.488000	1.827930	0.018279
165.363000	1.837910	0.018379
165.236000	1.847810	0.018478
165.109000	1.857700	0.018577
164.982000	1.867550	0.018676
164.856000	1.877360	0.018774
164.731000	1.887130	0.018871
164.608000	1.896850	0.018969
164.487000	1.906560	0.019066
164.367000	1.916250	0.019163
164.247000	1.925940	0.019259
164.127000	1.935620	0.019356
164.007000	1.945300	0.019453
163.890000	1.954990	0.019550
163.773000	1.964670	0.019647
163.650000	1.974330	0.019743
163.524000	1.983970	0.019840
163.398000	1.993570	0.019936
163.268000	2.003120	0.020031
163.138000	2.012670	0.020127
163.009000	2.022220	0.020222
162.880000	2.031740	0.020317
162.752000	2.041260	0.020413
162.623000	2.050770	0.020508
162.495000	2.060250	0.020603
162.366000	2.069670	0.020697
162.237000	2.079030	0.020790
162.110000	2.088320	0.020883
161.982000	2.097540	0.020975
161.854000	2.106720	0.021067
161.725000	2.115850	0.021159
161.590000	2.124970	0.021250
161.452000	2.134070	0.021341
161.310000	2.143170	0.021432
161.164000	2.152230	0.021522
161.016000	2.161300	0.021613
160.867000	2.170300	0.021703
160.718000	2.179260	0.021793
160.570000	2.188190	0.021882
160.420000	2.197060	0.021971
160.271000	2.205900	0.022059
160.122000	2.214660	0.022147
159.972000	2.223300	0.022233
159.821000	2.231830	0.022318
159.672000	2.240230	0.022402
159.525000	2.248520	0.022485
159.380000	2.256690	0.022567
159.238000	2.264740	0.022647
159.096000	2.272710	0.022727
158.956000	2.280600	0.022806
158.818000	2.288410	0.022884
158.681000	2.296160	0.022962
158.544000	2.303870	0.023039
158.407000	2.311520	0.023115
158.269000	2.319090	0.023191
158.131000	2.326650	0.023267
157.993000	2.334180	0.023342
157.854000	2.341670	0.023417
157.714000	2.349140	0.023491
157.575000	2.356570	0.023566
157.434000	2.363970	0.023640
157.293000	2.371280	0.023713
157.151000	2.378400	0.023784
157.009000	2.385570	0.023856
156.867000	2.392670	0.023927
156.724000	2.399680	0.023997
156.580000	2.406600	0.024066
156.436000	2.413410	0.024134
156.293000	2.420100	0.024201
156.151000	2.426710	0.024267
156.010000	2.433240	0.024332
155.870000	2.439740	0.024397
155.731000	2.446180	0.024462
155.593000	2.452590	0.024526
155.456000	2.458970	0.024590
155.318000	2.465330	0.024653
155.178000	2.471680	0.024717
155.039000	2.478010	0.024780
154.898000	2.484330	0.024843
154.756000	2.490640	0.024906
154.612000	2.497000	0.024970
154.466000	2.503200	0.025032
154.323000	2.509330	0.025093
154.180000	2.515380	0.025154
154.037000	2.521310	0.025213
153.894000	2.527120	0.025271
153.749000	2.532820	0.025328
153.605000	2.538380	0.025384
153.462000	2.543860	0.025439
153.318000	2.549250	0.025493
153.179000	2.554590	0.025546
153.042000	2.559870	0.025599
152.907000	2.565150	0.025652
152.772000	2.570360	0.025704
152.638000	2.575550	0.025756
152.507000	2.580730	0.025807
152.377000	2.585900	0.025859
152.247000	2.591060	0.025911
152.116000	2.596200	0.025962
151.987000	2.601330	0.026013
151.857000	2.606470	0.026065
151.729000	2.611490	0.026115
151.598000	2.616480	0.026165
151.469000	2.621410	0.026214
151.340000	2.626250	0.026263
151.212000	2.631020	0.026310
151.086000	2.635710	0.026357
150.961000	2.640320	0.026403
150.836000	2.644850	0.026449
150.711000	2.649290	0.026493
150.584000	2.653700	0.026537
150.456000	2.658060	0.026581
150.328000	2.662360	0.026624
150.196000	2.666620	0.026666
150.064000	2.670830	0.026708
149.931000	2.674990	0.026750
149.799000	2.679120	0.026791
149.670000	2.683220	0.026832
149.541000	2.687290	0.026873
149.409000	2.691270	0.026913
149.275000	2.695180	0.026952
149.136000	2.699030	0.026990
148.993000	2.702780	0.027028
148.847000	2.706440	0.027064
148.697000	2.710010	0.027100
148.546000	2.713520	0.027135
148.395000	2.716960	0.027170
148.245000	2.720330	0.027203
148.094000	2.723670	0.027237
147.945000	2.726950	0.027270
147.796000	2.730350	0.027304
147.648000	2.733560	0.027336
147.501000	2.736720	0.027367
147.354000	2.739840	0.027398
147.206000	2.742930	0.027429
147.059000	2.745960	0.027460
146.912000	2.748950	0.027490
146.767000	2.751930	0.027519
146.623000	2.754860	0.027549
146.481000	2.757730	0.027577
146.340000	2.760510	0.027605
146.199000	2.763240	0.027632
146.061000	2.765930	0.027659
145.924000	2.768570	0.027686
145.787000	2.771160	0.027712
145.649000	2.773710	0.027737
145.510000	2.776240	0.027762
145.371000	2.778740	0.027787
145.230000	2.781200	0.027812
145.088000	2.783630	0.027836
144.943000	2.786090	0.027861
144.799000	2.788540	0.027885
144.653000	2.790990	0.027910
144.510000	2.793450	0.027935
144.370000	2.795950	0.027960
144.232000	2.798420	0.027984
144.095000	2.800910	0.028009
143.954000	2.803390	0.028034
143.811000	2.805840	0.028058
143.667000	2.808250	0.028083
143.522000	2.810620	0.028106
143.377000	2.812980	0.028130
143.232000	2.815290	0.028153
143.085000	2.817560	0.028176
142.938000	2.819780	0.028198
142.789000	2.821940	0.028219
142.641000	2.823950	0.028240
142.493000	2.826040	0.028260
142.347000	2.828090	0.028281
142.203000	2.830100	0.028301
142.058000	2.832090	0.028321
141.914000	2.833990	0.028340
141.769000	2.835890	0.028359
141.626000	2.837780	0.028378
141.480000	2.839620	0.028396
141.334000	2.841430	0.028414
141.188000	2.843200	0.028432
141.041000	2.844950	0.028450
140.893000	2.846660	0.028467
140.743000	2.848340	0.028483
140.593000	2.850030	0.028500
140.442000	2.851720	0.028517
140.292000	2.853420	0.028534
140.144000	2.855100	0.028551
139.996000	2.856810	0.028568
139.847000	2.858530	0.028585
139.699000	2.860260	0.028603
139.552000	2.861990	0.028620
139.406000	2.863720	0.028637
139.262000	2.865460	0.028655
139.118000	2.867170	0.028672
138.974000	2.868880	0.028689
138.828000	2.870500	0.028705
138.683000	2.872120	0.028721
138.538000	2.873710	0.028737
138.393000	2.875220	0.028752
138.251000	2.876710	0.028767
138.111000	2.878160	0.028782
137.972000	2.879570	0.028796
137.834000	2.880970	0.028810
137.696000	2.882360	0.028824
137.556000	2.883760	0.028838
137.416000	2.885130	0.028851
137.275000	2.886530	0.028865
137.134000	2.887990	0.028880
136.990000	2.889460	0.028895
136.844000	2.890960	0.028910
136.696000	2.892480	0.028925
136.548000	2.894030	0.028940
136.398000	2.895590	0.028956
136.248000	2.897120	0.028971
136.098000	2.898620	0.028986
135.945000	2.900080	0.029001
135.794000	2.901500	0.029015
135.641000	2.902860	0.029029
135.489000	2.904170	0.029042
135.336000	2.905420	0.029054
135.183000	2.906630	0.029066
135.030000	2.907800	0.029078
134.879000	2.908830	0.029088
134.729000	2.909970	0.029100
134.581000	2.911100	0.029111
134.433000	2.912270	0.029123
134.289000	2.913460	0.029135
134.144000	2.914680	0.029147
134.002000	2.915930	0.029159
133.861000	2.917220	0.029172
133.720000	2.918510	0.029185
133.577000	2.919800	0.029198
133.432000	2.921110	0.029211
133.288000	2.922230	0.029222
133.143000	2.923480	0.029235
133.000000	2.924720	0.029247
132.858000	2.925910	0.029259
132.718000	2.927030	0.029270
132.579000	2.928120	0.029281
132.442000	2.929160	0.029292
132.306000	2.930180	0.029302
132.170000	2.931190	0.029312
132.036000	2.932230	0.029322
131.902000	2.933300	0.029333
131.768000	2.934400	0.029344
131.634000	2.935520	0.029355
131.499000	2.936640	0.029366
131.364000	2.937810	0.029378
131.228000	2.938990	0.029390
131.092000	2.940170	0.029402
130.956000	2.941340	0.029413
130.821000	2.942500	0.029425
130.685000	2.943650	0.029437
130.549000	2.944740	0.029447
130.414000	2.945790	0.029458
130.278000	2.946790	0.029468
130.142000	2.947740	0.029477
130.006000	2.948630	0.029486
129.871000	2.949460	0.029495
129.734000	2.950210	0.029502
129.598000	2.950910	0.029509
129.460000	2.951570	0.029516
129.324000	2.952170	0.029522
129.189000	2.952730	0.029527
129.055000	2.953340	0.029533
128.922000	2.953930	0.029539
128.789000	2.954540	0.029545
128.653000	2.955190	0.029552
128.517000	2.955880	0.029559
128.381000	2.956660	0.029567
128.245000	2.957400	0.029574
128.109000	2.958140	0.029581
127.973000	2.958910	0.029589
127.838000	2.959670	0.029597
127.701000	2.960450	0.029605
127.566000	2.961180	0.029612
127.432000	2.961870	0.029619
127.299000	2.962550	0.029626
127.167000	2.963200	0.029632
127.035000	2.963800	0.029638
126.903000	2.964400	0.029644
126.770000	2.964960	0.029650
126.636000	2.965480	0.029655
126.504000	2.965950	0.029660
126.374000	2.966390	0.029664
126.246000	2.966830	0.029668
126.118000	2.967260	0.029673
125.994000	2.967660	0.029677
125.871000	2.968030	0.029680
125.748000	2.968420	0.029684
125.628000	2.968790	0.029688
125.507000	2.969110	0.029691
125.385000	2.969390	0.029694
125.263000	2.969630	0.029696
125.140000	2.969830	0.029698
125.015000	2.970000	0.029700
124.890000	2.970150	0.029702
124.765000	2.970260	0.029703
124.638000	2.970420	0.029704
124.511000	2.970480	0.029705
124.384000	2.970500	0.029705
124.256000	2.970500	0.029705
124.130000	2.970470	0.029705
124.003000	2.970420	0.029704
123.874000	2.970340	0.029703
123.749000	2.970270	0.029703
123.622000	2.970170	0.029702
123.496000	2.970040	0.029700
123.369000	2.969880	0.029699
123.241000	2.969680	0.029697
123.114000	2.969460	0.029695
122.986000	2.969270	0.029693
122.858000	2.969070	0.029691
122.731000	2.968910	0.029689
122.603000	2.968770	0.029688
122.476000	2.968610	0.029686
122.349000	2.968560	0.029686
122.223000	2.968410	0.029684
122.097000	2.968420	0.029684
121.971000	2.968490	0.029685
121.845000	2.968600	0.029686
121.720000	2.968770	0.029688
121.595000	2.969100	0.029691
121.470000	2.969350	0.029694
121.344000	2.969620	0.029696
121.219000	2.969870	0.029699
121.093000	2.970120	0.029701
120.966000	2.970350	0.029704
120.837000	2.970570	0.029706
120.707000	2.970760	0.029708
120.577000	2.970970	0.029710
120.445000	2.971170	0.029712
120.317000	2.971380	0.029714
120.186000	2.971630	0.029716
120.057000	2.971960	0.029720
119.930000	2.972270	0.029723
119.804000	2.972580	0.029726
119.680000	2.973010	0.029730
119.556000	2.973470	0.029735
119.432000	2.974020	0.029740
119.309000	2.974540	0.029745
119.186000	2.975070	0.029751
119.064000	2.975600	0.029756
118.945000	2.976100	0.029761
118.826000	2.976560	0.029766
118.707000	2.977000	0.029770
118.589000	2.977450	0.029775
118.470000	2.977830	0.029778
118.350000	2.978190	0.029782
118.231000	2.978540	0.029785
118.111000	2.978880	0.029789
117.988000	2.979220	0.029792
117.864000	2.979520	0.029795
117.739000	2.979890	0.029799
117.616000	2.980300	0.029803
117.491000	2.980760	0.029808
117.364000	2.981260	0.029813
117.238000	2.981810	0.029818
117.112000	2.982420	0.029824
116.985000	2.983070	0.029831
116.856000	2.983750	0.029838
116.728000	2.984440	0.029844
116.598000	2.985150	0.029852
116.466000	2.985820	0.029858
116.333000	2.986340	0.029863
116.197000	2.986780	0.029868
116.060000	2.987100	0.029871
115.923000	2.987270	0.029873
115.786000	2.987330	0.029873
115.650000	2.987350	0.029874
115.515000	2.987180	0.029872
115.379000	2.986920	0.029869
115.243000	2.986610	0.029866
115.105000	2.986270	0.029863
114.967000	2.985960	0.029860
114.826000	2.985660	0.029857
114.684000	2.985430	0.029854
114.542000	2.985230	0.029852
114.401000	2.985060	0.029851
114.259000	2.984930	0.029849
114.117000	2.984780	0.029848
113.976000	2.984660	0.029847
113.834000	2.984580	0.029846
113.694000	2.984520	0.029845
113.553000	2.984460	0.029845
113.412000	2.984380	0.029844
113.271000	2.984570	0.029846
113.131000	2.984470	0.029845
112.991000	2.984500	0.029845
112.851000	2.984610	0.029846
112.710000	2.984820	0.029848
112.570000	2.985170	0.029852
112.429000	2.985650	0.029857
112.287000	2.986260	0.029863
112.145000	2.986950	0.029870
112.002000	2.987710	0.029877
111.858000	2.988520	0.029885
111.714000	2.989370	0.029894
111.569000	2.990210	0.029902
111.423000	2.991100	0.029911
111.277000	2.991990	0.029920
111.131000	2.992830	0.029928
110.989000	2.993600	0.029936
110.847000	2.994290	0.029943
110.705000	2.994970	0.029950
110.566000	2.995560	0.029956
110.428000	2.996110	0.029961
110.287000	2.996630	0.029966
110.150000	2.997120	0.029971
110.011000	2.997610	0.029976
109.873000	2.997950	0.029980
109.736000	2.998310	0.029983
109.599000	2.998610	0.029986
109.463000	2.998860	0.029989
109.328000	2.999070	0.029991
109.192000	2.999300	0.029993
109.057000	2.999470	0.029995
108.922000	2.999760	0.029998
108.786000	2.999950	0.030000
108.650000	3.000130	0.030001
108.514000	3.000310	0.030003
108.377000	3.000460	0.030005
108.241000	3.000620	0.030006
108.105000	3.000780	0.030008
107.969000	3.000960	0.030010
107.835000	3.001140	0.030011
107.702000	3.001350	0.030014
107.571000	3.001590	0.030016
107.441000	3.001850	0.030019
107.312000	3.002130	0.030021
107.184000	3.002430	0.030024
107.059000	3.002690	0.030027
106.933000	3.002980	0.030030
106.806000	3.003260	0.030033
106.679000	3.003480	0.030035
106.552000	3.003750	0.030038
106.426000	3.004040	0.030040
106.298000	3.004270	0.030043
106.172000	3.004340	0.030043
106.046000	3.004550	0.030046
105.921000	3.004750	0.030048
105.797000	3.004950	0.030050
105.672000	3.005150	0.030052
105.547000	3.005370	0.030054
105.422000	3.005600	0.030056
105.298000	3.005840	0.030058
105.172000	3.006090	0.030061
105.044000	3.006320	0.030063
104.918000	3.006500	0.030065
104.793000	3.006620	0.030066
104.670000	3.006670	0.030067
104.547000	3.006670	0.030067
104.424000	3.006690	0.030067
104.301000	3.006530	0.030065
104.178000	3.006320	0.030063
104.055000	3.006120	0.030061
103.931000	3.005790	0.030058
103.808000	3.005390	0.030054
103.686000	3.004930	0.030049
103.564000	3.004450	0.030045
103.441000	3.003970	0.030040
103.317000	3.003510	0.030035
103.192000	3.003100	0.030031
103.065000	3.002770	0.030028
102.937000	3.002560	0.030026
102.808000	3.002450	0.030025
102.679000	3.002430	0.030024
102.549000	3.002530	0.030025
102.420000	3.002740	0.030027
102.291000	3.003020	0.030030
102.163000	3.003410	0.030034
102.035000	3.003890	0.030039
101.906000	3.004410	0.030044
101.778000	3.004900	0.030049
101.648000	3.005440	0.030054
101.517000	3.005990	0.030060
101.385000	3.006540	0.030065
101.252000	3.007110	0.030071
101.119000	3.007690	0.030077
100.985000	3.008290	0.030083
100.850000	3.008900	0.030089
100.717000	3.009550	0.030096
100.585000	3.010200	0.030102
100.453000	3.010840	0.030108
100.321000	3.011500	0.030115
100.188000	3.012130	0.030121
100.054000	3.012510	0.030125
99.919000	3.013140	0.030131
99.782400	3.013640	0.030136
99.645100	3.013990	0.030140
99.506500	3.014140	0.030141
99.366400	3.014180	0.030142
99.227300	3.014110	0.030141
99.089500	3.013900	0.030139
98.951900	3.013610	0.030136
98.813700	3.013260	0.030133
98.676000	3.012890	0.030129
98.540000	3.012500	0.030125
98.404400	3.012080	0.030121
98.269300	3.011660	0.030117
98.135100	3.011250	0.030113
98.000400	3.010880	0.030109
97.866000	3.010550	0.030106
97.731800	3.010280	0.030103
97.595700	3.009990	0.030100
97.458800	3.009780	0.030098
97.320700	3.009570	0.030096
97.181500	3.009350	0.030094
97.044800	3.009220	0.030092
96.908000	3.009050	0.030091
96.768500	3.009040	0.030090
96.630700	3.009020	0.030090
96.493800	3.009070	0.030091
96.355600	3.009190	0.030092
96.218700	3.009380	0.030094
96.082200	3.009620	0.030096
95.946000	3.009890	0.030099
95.810300	3.010190	0.030102
95.675600	3.010490	0.030105
95.542300	3.010790	0.030108
95.408700	3.011090	0.030111
95.276000	3.011410	0.030114
95.143900	3.011690	0.030117
95.012800	3.011950	0.030120
94.881300	3.012190	0.030122
94.749100	3.012420	0.030124
94.615900	3.012600	0.030126
94.481500	3.012750	0.030128
94.347900	3.012900	0.030129
94.213600	3.013020	0.030130
94.078600	3.013160	0.030132
93.942700	3.013350	0.030134
93.805900	3.013520	0.030135
93.668500	3.013700	0.030137
93.530700	3.013900	0.030139
93.393700	3.014120	0.030141
93.256900	3.014330	0.030143
93.121500	3.014530	0.030145
92.988200	3.014810	0.030148
92.854800	3.014910	0.030149
92.724000	3.014960	0.030150
92.594500	3.014930	0.030149
92.463800	3.014810	0.030148
92.333400	3.014660	0.030147
92.203300	3.014400	0.030144
92.072500	3.014120	0.030141
91.942000	3.013780	0.030138
91.811500	3.013440	0.030134
91.679000	3.013140	0.030131
91.548500	3.012880	0.030129
91.419600	3.012680	0.030127
91.290900	3.012550	0.030126
91.162300	3.012450	0.030125
91.033600	3.012460	0.030125
90.906000	3.012470	0.030125
90.779000	3.012470	0.030125
90.650200	3.012560	0.030126
90.520200	3.012710	0.030127
90.388200	3.012890	0.030129
90.256400	3.013080	0.030131
90.124500	3.013150	0.030132
89.992400	3.013370	0.030134
89.862400	3.013590	0.030136
89.733000	3.013830	0.030138
89.603600	3.014050	0.030141
89.474500	3.014280	0.030143
89.345100	3.014540	0.030145
89.214500	3.014800	0.030148
89.081700	3.015070	0.030151
88.947900	3.015320	0.030153
88.814900	3.015560	0.030156
88.682000	3.015790	0.030158
88.548300	3.015970	0.030160
88.414400	3.016190	0.030162
88.280600	3.016320	0.030163
88.145700	3.016430	0.030164
88.010700	3.016470	0.030165
87.873200	3.016690	0.030167
87.735000	3.016640	0.030166
87.597900	3.016590	0.030166
87.462400	3.016560	0.030166
87.328100	3.016500	0.030165
87.195100	3.016470	0.030165
87.060600	3.016440	0.030164
86.925700	3.016420	0.030164
86.792600	3.016410	0.030164
86.658100	3.016380	0.030164
86.523600	3.016330	0.030163
86.390200	3.016260	0.030163
86.257100	3.016180	0.030162
86.123700	3.016130	0.030161
85.989700	3.016040	0.030160
85.855600	3.015900	0.030159
85.720500	3.015720	0.030157
85.584500	3.015530	0.030155
85.447800	3.015350	0.030154
85.310500	3.015100	0.030151
85.173700	3.014870	0.030149
85.036400	3.014670	0.030147
84.898800	3.014510	0.030145
84.761200	3.014400	0.030144
84.624300	3.014360	0.030144
84.487300	3.014400	0.030144
84.348200	3.014500	0.030145
84.209900	3.014670	0.030147
84.072200	3.014870	0.030149
83.934300	3.015130	0.030151
83.797900	3.015420	0.030154
83.660400	3.015670	0.030157
83.523500	3.015980	0.030160
83.385600	3.016260	0.030163
83.248800	3.016500	0.030165
83.112000	3.016690	0.030167
82.974000	3.016920	0.030169
82.838700	3.016990	0.030170
82.701500	3.017010	0.030170
82.562600	3.017030	0.030170
82.424800	3.016980	0.030170
82.286700	3.016900	0.030169
82.148400	3.016830	0.030168
82.010400	3.016760	0.030168
81.872800	3.016720	0.030167
81.735600	3.016680	0.030167
81.602900	3.016720	0.030167
81.470000	3.016790	0.030168
81.337400	3.016850	0.030169
81.204400	3.016960	0.030170
81.071700	3.017090	0.030171
80.938000	3.017190	0.030172
80.803900	3.017280	0.030173
80.670800	3.017330	0.030173
80.538800	3.017470	0.030175
80.407400	3.017460	0.030175
80.276600	3.017410	0.030174
80.145400	3.017310	0.030173
80.014600	3.017180	0.030172
79.884000	3.017050	0.030171
79.752700	3.016880	0.030169
79.621600	3.016720	0.030167
79.490500	3.016580	0.030166
79.360000	3.016520	0.030165
79.230600	3.016500	0.030165
79.101900	3.016530	0.030165
78.974100	3.016580	0.030166
78.848600	3.016710	0.030167
78.720200	3.016860	0.030169
78.592300	3.017030	0.030170
78.465400	3.017240	0.030172
78.336800	3.017460	0.030175
78.207100	3.017690	0.030177
78.076900	3.017920	0.030179
77.946300	3.018140	0.030181
77.817200	3.018360	0.030184
77.687400	3.018560	0.030186
77.557400	3.018770	0.030188
77.426000	3.018950	0.030190
77.293600	3.019120	0.030191
77.161200	3.019240	0.030192
77.027700	3.019350	0.030194
76.894900	3.019470	0.030195
76.762400	3.019660	0.030197
76.629700	3.019670	0.030197
76.495600	3.019650	0.030197
76.361900	3.019580	0.030196
76.228800	3.019500	0.030195
76.097300	3.019390	0.030194
75.965700	3.019260	0.030193
75.834100	3.019050	0.030191
75.702600	3.018920	0.030189
75.569700	3.018760	0.030188
75.435800	3.018630	0.030186
75.300500	3.018500	0.030185
75.164500	3.018400	0.030184
75.026700	3.018290	0.030183
74.890000	3.018210	0.030182
74.752200	3.018120	0.030181
74.614500	3.018010	0.030180
74.477700	3.017690	0.030177
74.341200	3.017590	0.030176
74.205900	3.017440	0.030174
74.069100	3.017210	0.030172
73.931000	3.016980	0.030170
73.791500	3.016710	0.030167
73.653000	3.016420	0.030164
73.513700	3.016090	0.030161
73.375300	3.015810	0.030158
73.237700	3.015550	0.030156
73.099000	3.015360	0.030154
72.959900	3.015230	0.030152
72.820700	3.015180	0.030152
72.681300	3.015200	0.030152
72.542200	3.015300	0.030153
72.403700	3.015480	0.030155
72.263500	3.015730	0.030157
72.125300	3.016020	0.030160
71.986500	3.016320	0.030163
71.849100	3.016690	0.030167
71.711500	3.017040	0.030170
71.570700	3.017380	0.030174
71.431000	3.017670	0.030177
71.290000	3.017920	0.030179
71.150100	3.018120	0.030181
71.007900	3.018280	0.030183
70.868000	3.018390	0.030184
70.727700	3.018490	0.030185
70.587300	3.018570	0.030186
70.446000	3.018650	0.030187
70.305000	3.018770	0.030188
70.163800	3.018920	0.030189
70.022700	3.019100	0.030191
69.880700	3.019310	0.030193
69.737500	3.019550	0.030196
69.594400	3.019800	0.030198
69.450400	3.019990	0.030200
69.306400	3.020260	0.030203
69.161300	3.020540	0.030205
69.016600	3.020740	0.030207
68.871400	3.020960	0.030210
68.726000	3.021140	0.030211
68.578600	3.021250	0.030213
68.433600	3.021300	0.030213
68.287600	3.021290	0.030213
68.140900	3.021090	0.030211
67.996100	3.020930	0.030209
67.851300	3.020730	0.030207
67.706800	3.020530	0.030205
67.562400	3.020340	0.030203
67.417100	3.020130	0.030201
67.273000	3.019970	0.030200
67.128600	3.019830	0.030198
66.984600	3.019730	0.030197
66.840200	3.019510	0.030195
66.695300	3.019450	0.030195
66.550700	3.019410	0.030194
66.405500	3.019370	0.030194
66.259900	3.019330	0.030193
66.112600	3.019270	0.030193
65.967100	3.019200	0.030192
65.819600	3.019130	0.030191
65.671800	3.019030	0.030190
65.521300	3.018860	0.030189
65.371500	3.018670	0.030187
65.220200	3.018460	0.030185
65.069000	3.018240	0.030182
64.918200	3.018020	0.030180
64.768100	3.017820	0.030178
64.619500	3.017660	0.030177
64.472200	3.017480	0.030175
64.327600	3.017380	0.030174
64.183200	3.017300	0.030173
64.042500	3.017240	0.030172
63.899500	3.017200	0.030172
63.756000	3.017180	0.030172
63.613300	3.017180	0.030172
63.469700	3.017190	0.030172
63.327400	3.017190	0.030172
63.185200	3.017220	0.030172
63.042900	3.017260	0.030173
62.900700	3.017280	0.030173
62.759100	3.017260	0.030173
62.617200	3.017250	0.030173
62.473700	3.017270	0.030173
62.330600	3.017260	0.030173
62.188600	3.017260	0.030173
62.046000	3.017290	0.030173
61.904100	3.017330	0.030173
61.761700	3.017370	0.030174
61.619000	3.017520	0.030175
61.477200	3.017580	0.030176
61.333500	3.017660	0.030177
61.191000	3.017690	0.030177
61.048100	3.017720	0.030177
60.905400	3.017750	0.030178
60.763600	3.017760	0.030178
60.620200	3.017760	0.030178
60.477600	3.017760	0.030178
60.334500	3.017780	0.030178
60.193200	3.017810	0.030178
60.049700	3.017880	0.030179
59.906300	3.018000	0.030180
59.762500	3.018190	0.030182
59.618500	3.018380	0.030184
59.475000	3.018630	0.030186
59.333000	3.018920	0.030189
59.192100	3.019260	0.030193
59.052700	3.019570	0.030196
58.914500	3.019900	0.030199
58.775700	3.020210	0.030202
58.636800	3.020500	0.030205
58.497900	3.020780	0.030208
58.359800	3.021010	0.030210
58.220900	3.021200	0.030212
58.082900	3.021370	0.030214
57.944800	3.021510	0.030215
57.807800	3.021640	0.030216
57.671300	3.021750	0.030218
57.536700	3.021850	0.030219
57.401900	3.021960	0.030220
57.267400	3.022070	0.030221
57.134100	3.022180	0.030222
57.001700	3.022300	0.030223
56.869500	3.022400	0.030224
56.738800	3.022530	0.030225
56.608700	3.022650	0.030227
56.479000	3.022730	0.030227
56.350200	3.022820	0.030228
56.222400	3.022870	0.030229
56.095500	3.022890	0.030229
55.969800	3.022880	0.030229
55.845000	3.022850	0.030229
55.721400	3.022800	0.030228
55.600100	3.022730	0.030227
55.479900	3.022690	0.030227
55.360600	3.022630	0.030226
55.241500	3.022600	0.030226
55.123900	3.022580	0.030226
55.008200	3.022600	0.030226
54.894500	3.022660	0.030227
54.781200	3.022740	0.030227
54.670000	3.022860	0.030229
54.560000	3.023010	0.030230
54.449000	3.023170	0.030232
54.339500	3.023510	0.030235
54.228700	3.023680	0.030237
54.117900	3.023850	0.030239
54.003900	3.023930	0.030239
53.892800	3.024050	0.030241
53.782300	3.024120	0.030241
53.673000	3.024150	0.030242
53.563600	3.024150	0.030242
53.455300	3.024080	0.030241
53.348200	3.024020	0.030240
53.242700	3.023940	0.030239
53.138300	3.023820	0.030238
53.035100	3.023670	0.030237
52.932600	3.023510	0.030235
52.830900	3.023350	0.030234
52.729700	3.023180	0.030232
52.629500	3.023000	0.030230
52.529800	3.022800	0.030228
52.430600	3.022620	0.030226
52.331800	3.022490	0.030225
52.233700	3.022380	0.030224
52.136000	3.022280	0.030223
52.039600	3.022230	0.030222
51.943800	3.022160	0.030222
51.847600	3.022110	0.030221
51.753300	3.022100	0.030221
51.659300	3.022050	0.030221
51.566700	3.022070	0.030221
51.475600	3.022080	0.030221
51.384900	3.022120	0.030221
51.294800	3.022150	0.030222
51.207600	3.022190	0.030222
51.120100	3.022230	0.030222
51.033900	3.022280	0.030223
50.950500	3.022330	0.030223
50.866400	3.022370	0.030224
50.779100	3.022430	0.030224
50.693500	3.022500	0.030225
50.606900	3.022570	0.030226
50.520900	3.022620	0.030226
50.435000	3.022690	0.030227
50.350400	3.022760	0.030228
50.266900	3.022790	0.030228
50.183400	3.022800	0.030228
50.100800	3.022820	0.030228
50.018400	3.022990	0.030230
49.936400	3.023010	0.030230
49.854600	3.023050	0.030231
49.773400	3.023140	0.030231
49.691700	3.023260	0.030233
49.610600	3.023400	0.030234
49.530500	3.023570	0.030236
49.450300	3.023760	0.030238
49.369700	3.023960	0.030240
49.290800	3.024170	0.030242
49.211400	3.024350	0.030244
49.132100	3.024500	0.030245
49.054200	3.024620	0.030246
48.975500	3.024690	0.030247
48.897500	3.024720	0.030247
48.820200	3.024710	0.030247
48.743000	3.024650	0.030247
48.665700	3.024540	0.030245
48.587400	3.024400	0.030244
48.509100	3.024240	0.030242
48.430500	3.024050	0.030241
48.352100	3.023820	0.030238
48.274400	3.023590	0.030236
48.196800	3.023370	0.030234
48.118300	3.023160	0.030232
48.040700	3.022980	0.030230
47.963900	3.022840	0.030228
47.886800	3.022700	0.030227
47.810000	3.022580	0.030226
47.735100	3.022470	0.030225
47.659200	3.022360	0.030224
47.584200	3.022280	0.030223
47.509800	3.022180	0.030222
47.437200	3.022090	0.030221
47.365000	3.022030	0.030220
47.292500	3.021980	0.030220
47.219700	3.021980	0.030220
47.147100	3.022000	0.030220
47.073500	3.022040	0.030220
47.000400	3.022110	0.030221
46.926600	3.022200	0.030222
46.852200	3.022300	0.030223
46.778100	3.022410	0.030224
46.705000	3.022500	0.030225
46.632700	3.022600	0.030226
46.560800	3.022390	0.030224
46.488700	3.022460	0.030225
46.418000	3.022490	0.030225
46.347800	3.022500	0.030225
46.279000	3.022510	0.030225
46.211900	3.022520	0.030225
46.146300	3.022540	0.030225
46.081200	3.022540	0.030225
46.017100	3.022520	0.030225
45.955200	3.022510	0.030225
45.893000	3.022500	0.030225
45.830700	3.022510	0.030225
45.770000	3.022530	0.030225
45.709500	3.022600	0.030226
45.650100	3.022600	0.030226
45.590600	3.022610	0.030226
45.530200	3.022620	0.030226
45.471100	3.022600	0.030226
45.411200	3.022600	0.030226
45.350700	3.022580	0.030226
45.290800	3.022530	0.030225
45.234000	3.022480	0.030225
45.176200	3.022430	0.030224
45.119800	3.022360	0.030224
45.064400	3.022260	0.030223
45.009400	3.022200	0.030222
44.955100	3.022160	0.030222
44.900300	3.022150	0.030222
44.847000	3.022190	0.030222
44.793900	3.022180	0.030222
44.741700	3.022190	0.030222
44.691400	3.022180	0.030222
44.641100	3.022120	0.030221
44.591700	3.022090	0.030221
44.543300	3.022040	0.030220
44.495900	3.021970	0.030220
44.449300	3.021900	0.030219
44.403100	3.021770	0.030218
44.358200	3.021660	0.030217
44.312600	3.021540	0.030215
44.268400	3.021430	0.030214
44.224800	3.021330	0.030213
44.180200	3.021220	0.030212
44.137600	3.020830	0.030208
44.095000	3.020780	0.030208
44.050600	3.020740	0.030207
44.006800	3.020730	0.030207
43.964800	3.020740	0.030207
43.922600	3.020780	0.030208
43.880100	3.020830	0.030208
43.839200	3.020930	0.030209
43.797700	3.021030	0.030210
43.756000	3.021150	0.030212
43.715300	3.021280	0.030213
43.673900	3.021400	0.030214
43.633000	3.021340	0.030213
43.591700	3.021420	0.030214
43.550400	3.021470	0.030215
43.510200	3.021460	0.030215
43.468600	3.021430	0.030214
43.428500	3.021380	0.030214
43.389400	3.021290	0.030213
43.350300	3.021180	0.030212
43.311200	3.021080	0.030211
43.271700	3.020950	0.030210
43.235100	3.020820	0.030208
43.199400	3.020690	0.030207
43.163800	3.020600	0.030206
43.130600	3.020480	0.030205
43.096800	3.020460	0.030205
43.064600	3.020470	0.030205
43.033700	3.020530	0.030205
43.001500	3.020630	0.030206
42.968300	3.020770	0.030208
42.935300	3.020930	0.030209
42.903300	3.021120	0.030211
42.872000	3.021340	0.030213
42.840400	3.021540	0.030215
42.808000	3.021730	0.030217
42.776100	3.021900	0.030219
42.744400	3.022040	0.030220
42.711000	3.022150	0.030222
42.677600	3.022230	0.030222
42.642400	3.022300	0.030223
42.606400	3.022360	0.030224
42.570100	3.022410	0.030224
42.534100	3.022420	0.030224
42.495500	3.022460	0.030225
42.456900	3.022460	0.030225
42.418600	3.022460	0.030225
42.380400	3.022430	0.030224
42.342200	3.022390	0.030224
42.304900	3.022310	0.030223
42.268900	3.022120	0.030221
42.232700	3.022040	0.030220
42.197900	3.021950	0.030220
42.164000	3.021850	0.030219
42.130200	3.021790	0.030218
42.096300	3.021770	0.030218
42.063200	3.021790	0.030218
42.030100	3.022090	0.030221
41.996800	3.022100	0.030221
41.963500	3.022110	0.030221
41.931000	3.022110	0.030221
41.899500	3.022060	0.030221
41.867300	3.021960	0.030220
41.835700	3.021790	0.030218
41.805200	3.021590	0.030216
41.773300	3.021360	0.030214
41.740800	3.021080	0.030211
41.707700	3.020780	0.030208
41.674600	3.020430	0.030204
41.641600	3.020050	0.030201
41.610700	3.019660	0.030197
41.579500	3.019260	0.030193
41.548200	3.018870	0.030189
41.517600	3.018480	0.030185
41.486700	3.018120	0.030181
41.454900	3.018000	0.030180
41.424100	3.017700	0.030177
41.394100	3.017440	0.030174
41.364100	3.017220	0.030172
41.333000	3.017120	0.030171
41.304200	3.017060	0.030171
41.276200	3.017140	0.030171
41.247800	3.017290	0.030173
41.220800	3.017550	0.030176
41.194600	3.017940	0.030179
41.169700	3.018380	0.030184
41.144600	3.018970	0.030190
41.119500	3.019620	0.030196
41.095800	3.020310	0.030203
41.072100	3.021010	0.030210
41.048300	3.021700	0.030217
41.026800	3.022340	0.030223
41.004100	3.022960	0.030230
40.981300	3.023530	0.030235
40.957400	3.024040	0.030240
40.933600	3.024500	0.030245
40.910500	3.024910	0.030249
40.886100	3.025260	0.030253
40.861400	3.025570	0.030256
40.837000	3.025840	0.030258
40.811100	3.026380	0.030264
40.787800	3.026510	0.030265
40.763200	3.026620	0.030266
40.738100	3.026710	0.030267
40.714300	3.026760	0.030268
40.690200	3.026810	0.030268
40.665800	3.026810	0.030268
40.641800	3.026770	0.030268
40.617100	3.026690	0.030267
40.592700	3.026580	0.030266
40.571200	3.026440	0.030264
40.547400	3.026300	0.030263
40.523500	3.026150	0.030262
40.501000	3.025990	0.030260
40.477700	3.025830	0.030258
40.455900	3.025680	0.030257
40.434100	3.025520	0.030255
40.412300	3.025360	0.030254
40.391300	3.025200	0.030252
40.372100	3.025030	0.030250
40.352400	3.024820	0.030248
40.333100	3.024640	0.030246
40.314800	3.024450	0.030245
40.296300	3.024230	0.030242
40.278400	3.023920	0.030239
40.260700	3.023710	0.030237
40.242500	3.023420	0.030234
40.224400	3.023140	0.030231
40.206300	3.022850	0.030229
40.187700	3.022510	0.030225
40.169700	3.022160	0.030222
40.151300	3.021800	0.030218
40.133900	3.021420	0.030214
40.117900	3.021050	0.030211
40.103300	3.020690	0.030207
40.088100	3.020330	0.030203
40.073200	3.019980	0.030200
40.058300	3.019660	0.030197
40.042000	3.019330	0.030193
40.024400	3.019050	0.030191
40.007500	3.018790	0.030188
39.990900	3.018580	0.030186
39.974600	3.018410	0.030184
39.956600	3.018300	0.030183
39.938900	3.018240	0.030182
39.919000	3.018250	0.030183
39.900400	3.018310	0.030183
39.880900	3.018420	0.030184
39.861000	3.018540	0.030185
39.841300	3.018460	0.030185
39.822100	3.018750	0.030188
39.802300	3.018950	0.030190
39.783700	3.019160	0.030192
39.765300	3.019380	0.030194
39.747000	3.019580	0.030196
39.727600	3.019740	0.030197
39.708400	3.019860	0.030199
39.688000	3.019980	0.030200
39.668600	3.020100	0.030201
39.649000	3.020220	0.030202
39.628000	3.020350	0.030204
39.608200	3.020500	0.030205
39.587600	3.020670	0.030207
39.567900	3.020870	0.030209
39.547600	3.021100	0.030211
39.528000	3.021350	0.030214
39.508400	3.021650	0.030217
39.489000	3.021960	0.030220
39.468700	3.022300	0.030223
39.450200	3.022680	0.030227
39.432200	3.023090	0.030231
39.413900	3.023530	0.030235
39.396400	3.024000	0.030240
39.379300	3.024460	0.030245
39.363200	3.025060	0.030251
39.347800	3.025320	0.030253
39.331400	3.025770	0.030258
39.315900	3.026210	0.030262
39.300900	3.026690	0.030267
39.285700	3.027040	0.030270
39.272100	3.027350	0.030274
39.258100	3.027560	0.030276
39.244400	3.027650	0.030277
39.230700	3.027590	0.030276
39.217000	3.027370	0.030274
39.201900	3.027010	0.030270
39.188700	3.026510	0.030265
39.174600	3.025890	0.030259
39.161300	3.025220	0.030252
39.148300	3.024490	0.030245
39.134100	3.023750	0.030238
39.119800	3.023000	0.030230
39.105300	3.022270	0.030223
39.090600	3.021560	0.030216
39.074300	3.020890	0.030209
39.059600	3.020250	0.030203
39.044500	3.019640	0.030196
39.029300	3.019090	0.030191
39.014100	3.018590	0.030186
38.999200	3.018160	0.030182
38.982800	3.017780	0.030178
38.967700	3.017560	0.030176
38.953500	3.017450	0.030175
38.939300	3.017480	0.030175
38.926600	3.017650	0.030177
38.912500	3.017890	0.030179
38.900100	3.018230	0.030182
38.888000	3.018620	0.030186
38.874800	3.019050	0.030191
38.860700	3.019490	0.030195
38.847600	3.019930	0.030199
38.833200	3.020370	0.030204
38.819100	3.020770	0.030208
38.807100	3.021180	0.030212
38.793600	3.021550	0.030216
38.780200	3.021900	0.030219
38.768500	3.022220	0.030222
38.755500	3.022500	0.030225
38.741700	3.022770	0.030228
38.729300	3.023010	0.030230
38.718400	3.023230	0.030232
38.706900	3.023430	0.030234
38.696300	3.023620	0.030236
38.686100	3.023780	0.030238
38.676700	3.024010	0.030240
38.668000	3.024170	0.030242
38.660400	3.024320	0.030243
38.652100	3.024420	0.030244
38.644100	3.024510	0.030245
38.635900	3.024630	0.030246
38.627900	3.024720	0.030247
38.621000	3.024840	0.030248
38.615100	3.024960	0.030250
38.608100	3.025070	0.030251
38.601400	3.025160	0.030252
38.595300	3.025230	0.030252
38.588400	3.025280	0.030253
38.582300	3.025300	0.030253
38.574500	3.025320	0.030253
38.567500	3.025290	0.030253
38.559500	3.025220	0.030252
38.551600	3.025110	0.030251
38.542800	3.024950	0.030250
38.535200	3.024750	0.030248
38.526100	3.024490	0.030245
38.516300	3.024170	0.030242
38.507900	3.023820	0.030238
38.498600	3.023430	0.030234
38.489200	3.023020	0.030230
38.478800	3.022840	0.030228
38.470000	3.022400	0.030224
38.460800	3.021920	0.030219
38.451400	3.021420	0.030214
38.442200	3.020850	0.030209
38.432400	3.020340	0.030203
38.422700	3.019880	0.030199
38.413700	3.019500	0.030195
38.403100	3.019230	0.030192
38.395100	3.019040	0.030190
38.385400	3.018970	0.030190
38.375600	3.018970	0.030190
38.366500	3.019050	0.030191
38.358200	3.019190	0.030192
38.349300	3.019360	0.030194
38.341200	3.019550	0.030196
38.334100	3.019750	0.030198
38.325900	3.019950	0.030200
38.319200	3.020160	0.030202
38.311900	3.020360	0.030204
38.305100	3.020550	0.030206
38.297500	3.020700	0.030207
38.289300	3.020840	0.030208
38.281000	3.020940	0.030209
38.271800	3.021020	0.030210
38.261700	3.020950	0.030210
38.253400	3.020970	0.030210
38.242700	3.020980	0.030210
38.230300	3.020970	0.030210
38.219200	3.020880	0.030209
38.207100	3.020900	0.030209
38.195900	3.020860	0.030209
38.182300	3.020850	0.030209
38.168900	3.020850	0.030209
38.156400	3.020900	0.030209
38.144600	3.021000	0.030210
38.131100	3.021130	0.030211
38.119100	3.021300	0.030213
38.107200	3.021520	0.030215
38.093300	3.021770	0.030218
38.081600	3.022080	0.030221
38.070500	3.022370	0.030224
38.057100	3.022700	0.030227
38.046000	3.023010	0.030230
38.036800	3.023310	0.030233
38.026100	3.023590	0.030236
38.014300	3.023850	0.030239
38.003000	3.024080	0.030241
37.991100	3.024280	0.030243
37.978500	3.024440	0.030244
37.966300	3.024550	0.030246
37.954100	3.024610	0.030246
37.940500	3.024580	0.030246
37.927300	3.024440	0.030244
37.913300	3.024150	0.030242
37.900700	3.023740	0.030237
37.887700	3.023160	0.030232
37.874300	3.022600	0.030226
37.860800	3.022030	0.030220
37.846600	3.021450	0.030215
37.834200	3.020900	0.030209
37.820600	3.020380	0.030204
37.808500	3.019880	0.030199
37.796200	3.019430	0.030194
37.785000	3.018990	0.030190
37.773900	3.018580	0.030186
37.764000	3.018220	0.030182
37.755000	3.017920	0.030179
37.745400	3.017680	0.030177
37.735900	3.017500	0.030175
37.728700	3.017370	0.030174
37.720600	3.017310	0.030173
37.710400	3.017300	0.030173
37.699800	3.017330	0.030173
37.688600	3.017410	0.030174
37.677500	3.017510	0.030175
37.664000	3.017620	0.030176
37.650500	3.017720	0.030177
37.636500	3.017840	0.030178
37.621600	3.017950	0.030180
37.607200	3.018040	0.030180
37.592700	3.018170	0.030182
37.577500	3.018230	0.030182
37.564000	3.018310	0.030183
37.548600	3.018390	0.030184
37.535500	3.018530	0.030185
37.521900	3.018690	0.030187
37.509200	3.018870	0.030189
37.496100	3.019070	0.030191
37.484300	3.019280	0.030193
37.471600	3.019510	0.030195
37.459600	3.019750	0.030198
37.449300	3.020010	0.030200
37.438600	3.020270	0.030203
37.429100	3.020550	0.030206
37.420300	3.020840	0.030208
37.411600	3.021150	0.030212
37.403100	3.021480	0.030215
37.393800	3.021830	0.030218
37.385500	3.022200	0.030222
37.377400	3.022590	0.030226
37.367900	3.022980	0.030230
37.360100	3.023380	0.030234
37.353500	3.023770	0.030238
37.346000	3.024220	0.030242
37.338400	3.024580	0.030246
37.331100	3.024870	0.030249
37.323100	3.025080	0.030251
37.315700	3.025200	0.030252
37.308000	3.025260	0.030253
37.299800	3.025170	0.030252
37.292000	3.025040	0.030250
37.283300	3.024850	0.030249
37.275000	3.024610	0.030246
37.266400	3.024350	0.030244
37.258300	3.024060	0.030241
37.250200	3.023780	0.030238
37.242600	3.023510	0.030235
37.234000	3.023230	0.030232
37.225300	3.022960	0.030230
37.216900	3.022690	0.030227
37.208300	3.022440	0.030224
37.198600	3.022180	0.030222
37.188900	3.021930	0.030219
37.179400	3.021670	0.030217
37.169200	3.021420	0.030214
37.157600	3.021190	0.030212
37.147500	3.020990	0.030210
37.136900	3.020800	0.030208
37.126900	3.020630	0.030206
37.116100	3.020410	0.030204
37.105600	3.020290	0.030203
37.094600	3.020440	0.030204
37.083600	3.020320	0.030203
37.072200	3.020200	0.030202
37.058800	3.020080	0.030201
37.046500	3.020030	0.030200
37.033100	3.019960	0.030200
37.019100	3.019880	0.030199
37.003800	3.019800	0.030198
36.989700	3.019680	0.030197
36.974600	3.019590	0.030196
36.958800	3.019490	0.030195
36.944800	3.019390	0.030194
36.930300	3.019300	0.030193
36.915100	3.019210	0.030192
36.901000	3.019140	0.030191
36.887200	3.019090	0.030191
36.874900	3.019050	0.030191
36.861700	3.019030	0.030190
36.850000	3.019030	0.030190
36.839100	3.019030	0.030190
36.827800	3.019030	0.030190
36.818200	3.019050	0.030191
36.809000	3.019070	0.030191
36.800300	3.019090	0.030191
36.791700	3.019220	0.030192
36.783200	3.019260	0.030193
36.774500	3.019280	0.030193
36.766000	3.019300	0.030193
36.756800	3.019300	0.030193
36.748000	3.019310	0.030193
36.738300	3.019350	0.030194
36.730000	3.019420	0.030194
36.720400	3.019560	0.030196
36.711600	3.019740	0.030197
36.702700	3.019960	0.030200
36.693600	3.020210	0.030202
36.685200	3.020480	0.030205
36.676900	3.020760	0.030208
36.669300	3.021050	0.030211
36.661400	3.021340	0.030213
36.655100	3.021610	0.030216
36.651100	3.021870	0.030219
36.646700	3.022090	0.030221
36.642100	3.022290	0.030223
36.640100	3.022470	0.030225
36.637900	3.022620	0.030226
36.634700	3.022760	0.030228
36.632400	3.022870	0.030229
36.629000	3.022970	0.030230
36.628400	3.023020	0.030230
36.629400	3.023090	0.030231
36.630100	3.023130	0.030231
36.631100	3.023150	0.030232
36.632500	3.023110	0.030231
36.634800	3.023050	0.030231
36.637900	3.022970	0.030230
36.641800	3.022880	0.030229
36.647500	3.022780	0.030228
36.653700	3.022660	0.030227
36.659900	3.022530	0.030225
36.667700	3.022380	0.030224
36.676800	3.022250	0.030223
36.686300	3.022080	0.030221
36.698100	3.021910	0.030219
36.710700	3.021700	0.030217
36.725300	3.021470	0.030215
36.740100	3.021200	0.030212
36.757400	3.020910	0.030209
36.775900	3.020580	0.030206
36.797400	3.020240	0.030202
36.818600	3.019900	0.030199
36.841300	3.019570	0.030196
36.861800	3.019250	0.030193
36.883300	3.018960	0.030190
36.909500	3.018700	0.030187
36.937500	3.018460	0.030185
36.967800	3.018230	0.030182
37.001100	3.018000	0.030180
37.036700	3.017840	0.030178
37.073400	3.017650	0.030177
37.111700	3.017460	0.030175
37.152100	3.017270	0.030173
37.194000	3.017080	0.030171
37.235600	3.016900	0.030169
37.279000	3.016710	0.030167
37.323200	3.016530	0.030165
37.368800	3.016330	0.030163
37.412600	3.016160	0.030162
37.456600	3.015980	0.030160
37.506200	3.015820	0.030158
37.558400	3.015680	0.030157
37.611100	3.015550	0.030156
37.668000	3.015470	0.030155
37.726400	3.015440	0.030154
37.787000	3.015470	0.030155
37.846300	3.015570	0.030156
37.906600	3.015860	0.030159
37.968800	3.016090	0.030161
38.036500	3.016410	0.030164
38.106000	3.016770	0.030168
38.177300	3.016910	0.030169
38.249800	3.017390	0.030174
38.320900	3.017870	0.030179
38.393100	3.018360	0.030184
38.468700	3.018770	0.030188
38.542900	3.019170	0.030192
38.614600	3.019560	0.030196
38.690800	3.019920	0.030199
38.767600	3.020270	0.030203
38.842300	3.020580	0.030206
38.918900	3.020870	0.030209
38.997300	3.021150	0.030212
39.078200	3.021400	0.030214
39.156500	3.021650	0.030217
39.236400	3.021870	0.030219
39.317900	3.022060	0.030221
39.396100	3.022240	0.030222
39.476200	3.022380	0.030224
39.560000	3.022500	0.030225
39.640400	3.022610	0.030226
39.722900	3.022720	0.030227
39.809200	3.022810	0.030228
39.892700	3.022890	0.030229
39.980400	3.022960	0.030230
40.068500	3.023010	0.030230
40.158200	3.023050	0.030231
40.247900	3.023070	0.030231
40.339000	3.023070	0.030231
40.428500	3.023050	0.030231
40.518300	3.022990	0.030230
40.611300	3.022880	0.030229
40.704700	3.022690	0.030227
40.798900	3.022430	0.030224
40.892900	3.022080	0.030221
40.984800	3.021670	0.030217
41.075800	3.021190	0.030212
41.169500	3.020650	0.030207
41.264500	3.020070	0.030201
41.357600	3.019510	0.030195
41.448200	3.018970	0.030190
41.540800	3.018490	0.030185
41.636300	3.018100	0.030181
41.727800	3.017810	0.030178
41.822200	3.017720	0.030177
41.917900	3.017640	0.030176
42.010600	3.017670	0.030177
42.103400	3.017780	0.030178
42.201800	3.017970	0.030180
42.298500	3.018180	0.030182
42.394500	3.018420	0.030184
42.490900	3.018660	0.030187
42.586800	3.018910	0.030189
42.683000	3.019150	0.030192
42.779300	3.019380	0.030194
42.872300	3.019610	0.030196
42.965900	3.019820	0.030198
43.059700	3.020020	0.030200
43.157900	3.020200	0.030202
43.257500	3.020370	0.030204
43.357600	3.020510	0.030205
43.454800	3.020630	0.030206
43.551200	3.020720	0.030207
43.651400	3.020800	0.030208
43.752500	3.020850	0.030209
43.848800	3.020880	0.030209
43.944800	3.020890	0.030209
44.040000	3.020880	0.030209
44.135600	3.020860	0.030209
44.229900	3.020820	0.030208
44.323000	3.020770	0.030208
44.419800	3.020690	0.030207
44.516000	3.020600	0.030206
44.611500	3.020500	0.030205
44.702700	3.020470	0.030205
44.793200	3.020370	0.030204
44.883600	3.020270	0.030203
44.973100	3.020190	0.030202
45.065000	3.020130	0.030201
45.156100	3.020040	0.030200
45.244800	3.019970	0.030200
45.335900	3.019900	0.030199
45.429300	3.019850	0.030199
45.519700	3.019810	0.030198
45.610200	3.019770	0.030198
45.703700	3.019730	0.030197
45.796100	3.019690	0.030197
45.887100	3.019660	0.030197
45.976500	3.019640	0.030196
46.068800	3.019620	0.030196
46.160400	3.019590	0.030196
46.250000	3.019580	0.030196
46.341800	3.019590	0.030196
46.433900	3.019610	0.030196
46.523700	3.019630	0.030196
46.616600	3.019640	0.030196
46.708400	3.019630	0.030196
46.798700	3.019500	0.030195
46.891700	3.019460	0.030195
46.984100	3.019400	0.030194
47.073900	3.019310	0.030193
47.163800	3.019200	0.030192
47.253500	3.019090	0.030191
47.343400	3.018990	0.030190
47.436100	3.018900	0.030189
47.528800	3.018830	0.030188
47.619500	3.018760	0.030188
47.709400	3.018510	0.030185
47.799500	3.018490	0.030185
47.889600	3.018440	0.030184
47.982500	3.018420	0.030184
48.077000	3.018410	0.030184
48.169800	3.018440	0.030184
48.261700	3.018470	0.030185
48.353700	3.018510	0.030185
48.449300	3.018560	0.030186
48.543300	3.018620	0.030186
48.635000	3.018690	0.030187
48.732600	3.018760	0.030188
48.828200	3.018840	0.030188
48.922100	3.018920	0.030189
49.020200	3.019020	0.030190
49.119400	3.019120	0.030191
49.216500	3.019240	0.030192
49.315200	3.019370	0.030194
49.411900	3.019540	0.030195
49.507800	3.019720	0.030197
49.604100	3.019920	0.030199
49.699600	3.020150	0.030202
49.794800	3.020380	0.030204
49.893800	3.020620	0.030206
49.992600	3.020860	0.030209
50.091000	3.021110	0.030211
50.185800	3.021360	0.030214
50.279000	3.021610	0.030216
50.370900	3.021860	0.030219
50.466400	3.022090	0.030221
50.562200	3.022300	0.030223
50.658800	3.022500	0.030225
50.755400	3.022690	0.030227
50.853100	3.022710	0.030227
50.951500	3.022660	0.030227
51.051100	3.022530	0.030225
51.149300	3.022300	0.030223
51.248600	3.021910	0.030219
51.348800	3.021530	0.030215
51.448900	3.021050	0.030211
51.549300	3.020490	0.030205
51.650800	3.019870	0.030199
51.751800	3.019230	0.030192
51.853500	3.018570	0.030186
51.956500	3.017900	0.030179
52.057500	3.017240	0.030172
52.160100	3.016590	0.030166
52.266600	3.015960	0.030160
52.372000	3.015350	0.030154
52.477100	3.014780	0.030148
52.582800	3.014270	0.030143
52.689000	3.013840	0.030138
52.796400	3.013530	0.030135
52.903800	3.013350	0.030134
53.012300	3.013290	0.030133
53.121900	3.013360	0.030134
53.231100	3.013540	0.030135
53.341400	3.013840	0.030138
53.452400	3.014250	0.030143
53.563400	3.014740	0.030147
53.676600	3.015290	0.030153
53.791000	3.015850	0.030159
53.905300	3.016430	0.030164
54.021700	3.017000	0.030170
54.138200	3.017540	0.030175
54.255200	3.018080	0.030181
54.370700	3.018600	0.030186
54.484700	3.019010	0.030190
54.599600	3.019520	0.030195
54.715400	3.019960	0.030200
54.832400	3.020340	0.030203
54.950600	3.020630	0.030206
55.069200	3.020910	0.030209
55.187800	3.021120	0.030211
55.307900	3.021280	0.030213
55.429200	3.021390	0.030214
55.550200	3.021460	0.030215
55.671900	3.021490	0.030215
55.793900	3.021490	0.030215
55.915100	3.021470	0.030215
56.036200	3.021430	0.030214
56.157200	3.021360	0.030214
56.279500	3.021250	0.030213
56.401400	3.021130	0.030211
56.523800	3.020950	0.030210
56.647400	3.020750	0.030208
56.768600	3.020500	0.030205
56.889400	3.020190	0.030202
57.010500	3.019840	0.030198
57.131700	3.019420	0.030194
57.253200	3.018960	0.030190
57.374300	3.018460	0.030185
57.496400	3.017940	0.030179
57.618400	3.017440	0.030174
57.741100	3.016810	0.030168
57.863200	3.016470	0.030165
57.985600	3.016190	0.030162
58.108000	3.016020	0.030160
58.229600	3.015950	0.030160
58.352100	3.015980	0.030160
58.474800	3.016300	0.030163
58.598200	3.016450	0.030165
58.723100	3.016640	0.030166
58.849100	3.016810	0.030168
58.974600	3.016990	0.030170
59.101500	3.017150	0.030172
59.227800	3.017310	0.030173
59.354800	3.017480	0.030175
59.482100	3.017650	0.030177
59.608600	3.017820	0.030178
59.735500	3.017990	0.030180
59.862300	3.018140	0.030181
59.989200	3.018280	0.030183
60.116600	3.018390	0.030184
60.244500	3.018460	0.030185
60.373700	3.018480	0.030185
60.503200	3.018470	0.030185
60.633400	3.018430	0.030184
60.764800	3.018330	0.030183
60.895100	3.018210	0.030182
61.028800	3.018050	0.030181
61.161600	3.017870	0.030179
61.291600	3.017670	0.030177
61.424100	3.017420	0.030174
61.556300	3.017140	0.030171
61.689400	3.016830	0.030168
61.822700	3.016660	0.030167
61.956100	3.016300	0.030163
62.090300	3.015950	0.030160
62.224400	3.015630	0.030156
62.358800	3.015340	0.030153
62.495100	3.015090	0.030151
62.630400	3.014800	0.030148
62.767000	3.014640	0.030146
62.903700	3.014480	0.030145
63.039600	3.014330	0.030143
63.175700	3.014190	0.030142
63.312200	3.014090	0.030141
63.447600	3.014050	0.030141
63.583900	3.014120	0.030141
63.719200	3.014270	0.030143
63.856100	3.014540	0.030145
63.993600	3.014890	0.030149
64.131300	3.015340	0.030153
64.268900	3.015860	0.030159
64.404700	3.016430	0.030164
64.539200	3.017030	0.030170
64.674100	3.017610	0.030176
64.809100	3.018180	0.030182
64.942000	3.018690	0.030187
65.074300	3.019160	0.030192
65.205700	3.019540	0.030195
65.337300	3.019800	0.030198
65.468600	3.019960	0.030200
65.600700	3.019980	0.030200
65.733300	3.019900	0.030199
65.864600	3.019690	0.030197
65.996800	3.019380	0.030194
66.128900	3.018990	0.030190
66.261200	3.018510	0.030185
66.392800	3.018030	0.030180
66.523600	3.017590	0.030176
66.655000	3.017190	0.030172
66.785000	3.016860	0.030169
66.913200	3.016590	0.030166
67.039600	3.016360	0.030164
67.167400	3.016170	0.030162
67.295900	3.016010	0.030160
67.424900	3.015840	0.030158
67.553900	3.015720	0.030157
67.684100	3.015640	0.030156
67.813600	3.015580	0.030156
67.944200	3.015540	0.030155
68.075200	3.015530	0.030155
68.205300	3.015530	0.030155
68.334900	3.015550	0.030156
68.464000	3.015570	0.030156
68.593700	3.015610	0.030156
68.724100	3.015650	0.030157
68.855000	3.015700	0.030157
68.985000	3.015750	0.030158
69.115300	3.015800	0.030158
69.245100	3.015870	0.030159
69.375100	3.015930	0.030159
69.505300	3.016000	0.030160
69.634900	3.016060	0.030161
69.765200	3.016110	0.030161
69.895100	3.016170	0.030162
70.024400	3.015930	0.030159
70.152500	3.015980	0.030160
70.278600	3.016010	0.030160
70.404600	3.016050	0.030161
70.530300	3.016070	0.030161
70.654600	3.016050	0.030161
70.779200	3.016210	0.030162
70.904100	3.016130	0.030161
71.027600	3.016050	0.030161
71.151800	3.015920	0.030159
71.274800	3.015780	0.030158
71.398700	3.015630	0.030156
71.522600	3.015450	0.030155
71.647000	3.015290	0.030153
71.770300	3.015170	0.030152
71.894100	3.015090	0.030151
72.016200	3.015000	0.030150
72.137000	3.014900	0.030149
72.254600	3.014780	0.030148
72.373500	3.014630	0.030146
72.491300	3.014490	0.030145
72.609300	3.014300	0.030143
72.726500	3.014120	0.030141
72.842800	3.013960	0.030140
72.959000	3.013820	0.030138
73.072700	3.013720	0.030137
73.187900	3.013650	0.030137
73.303700	3.013630	0.030136
73.420100	3.013640	0.030136
73.537100	3.013690	0.030137
73.655100	3.013780	0.030138
73.772200	3.013860	0.030139
73.891800	3.014050	0.030141
74.012000	3.014270	0.030143
74.131100	3.014540	0.030145
74.252500	3.014860	0.030149
74.375600	3.015220	0.030152
74.500100	3.015630	0.030156
74.626400	3.015870	0.030159
74.753400	3.016300	0.030163
74.881200	3.016680	0.030167
75.009400	3.017030	0.030170
75.138000	3.017320	0.030173
75.269500	3.017550	0.030176
75.400200	3.017740	0.030177
75.532100	3.017900	0.030179
75.664100	3.018000	0.030180
75.796400	3.018080	0.030181
75.930500	3.018100	0.030181
76.063300	3.018040	0.030180
76.196700	3.017900	0.030179
76.332400	3.017660	0.030177
76.469800	3.017350	0.030174
76.605200	3.016940	0.030169
76.739400	3.016460	0.030165
76.873500	3.015930	0.030159
77.006500	3.015350	0.030154
77.137700	3.014760	0.030148
77.268400	3.014150	0.030142
77.397500	3.013570	0.030136
77.526100	3.013000	0.030130
77.653700	3.012470	0.030125
77.784800	3.012020	0.030120
77.916100	3.011660	0.030117
78.046300	3.011410	0.030114
78.177800	3.011280	0.030113
78.307200	3.011260	0.030113
78.437900	3.011320	0.030113
78.570300	3.011500	0.030115
78.700200	3.011740	0.030117
78.830200	3.012050	0.030121
78.960300	3.012390	0.030124
79.090600	3.012720	0.030127
79.219900	3.013000	0.030130
79.349000	3.013220	0.030132
79.477000	3.013370	0.030134
79.605900	3.013470	0.030135
79.736200	3.013520	0.030135
79.865300	3.013510	0.030135
79.993400	3.013440	0.030134
80.121000	3.013320	0.030133
80.248200	3.013160	0.030132
80.374100	3.012980	0.030130
80.501100	3.012780	0.030128
80.627100	3.012560	0.030126
80.753800	3.012340	0.030123
80.879700	3.012120	0.030121
81.004900	3.011890	0.030119
81.129200	3.011670	0.030117
81.254000	3.011460	0.030115
81.377800	3.011230	0.030112
81.502900	3.011100	0.030111
81.629000	3.010910	0.030109
81.756100	3.010740	0.030107
81.881600	3.010610	0.030106
82.008100	3.010540	0.030105
82.135100	3.010560	0.030106
82.263200	3.010650	0.030107
82.391100	3.010830	0.030108
82.519000	3.011070	0.030111
82.650100	3.011660	0.030117
82.778700	3.012000	0.030120
82.908800	3.012390	0.030124
83.037900	3.012820	0.030128
83.166900	3.013240	0.030132
83.294900	3.013680	0.030137
83.422800	3.014060	0.030141
83.549000	3.014390	0.030144
83.674500	3.014650	0.030147
83.801000	3.014870	0.030149
83.925800	3.015020	0.030150
84.050000	3.015100	0.030151
84.172500	3.015140	0.030151
84.295700	3.015120	0.030151
84.418400	3.015060	0.030151
84.542100	3.014990	0.030150
84.665000	3.014950	0.030150
84.788000	3.014920	0.030149
84.910600	3.014910	0.030149
85.034500	3.014930	0.030149
85.158900	3.014940	0.030149
85.282800	3.014980	0.030150
85.408600	3.015040	0.030150
85.532400	3.015060	0.030151
85.659200	3.015050	0.030151
85.786300	3.014950	0.030150
85.912800	3.014860	0.030149
86.039900	3.014760	0.030148
86.168600	3.014660	0.030147
86.298100	3.014520	0.030145
86.427800	3.014370	0.030144
86.559100	3.014220	0.030142
86.691900	3.014000	0.030140
86.826000	3.013730	0.030137
86.961700	3.013460	0.030135
87.098200	3.013140	0.030131
87.235300	3.012780	0.030128
87.370000	3.012400	0.030124
87.504600	3.011990	0.030120
87.639300	3.011580	0.030116
87.773300	3.011180	0.030112
87.909000	3.010780	0.030108
88.044000	3.010420	0.030104
88.176000	3.010060	0.030101
88.309400	3.009750	0.030098
88.441300	3.009450	0.030095
88.572600	3.009180	0.030092
88.703900	3.008940	0.030089
88.835300	3.008770	0.030088
88.966900	3.008740	0.030087
89.098900	3.008800	0.030088
89.231500	3.008990	0.030090
89.364100	3.009340	0.030093
89.496800	3.009830	0.030098
89.630300	3.010430	0.030104
89.764300	3.011150	0.030112
89.899300	3.011870	0.030119
90.035200	3.012570	0.030126
90.170500	3.013290	0.030133
90.306700	3.014000	0.030140
90.442800	3.014690	0.030147
90.579300	3.015350	0.030154
90.715400	3.015910	0.030159
90.850200	3.016340	0.030163
90.983800	3.016620	0.030166
91.118400	3.016750	0.030168
91.252500	3.016730	0.030167
91.385900	3.016580	0.030166
91.520800	3.016290	0.030163
91.655700	3.015900	0.030159
91.790000	3.015410	0.030154
91.925000	3.014860	0.030149
92.056800	3.014280	0.030143
92.187400	3.013660	0.030137
92.318100	3.013020	0.030130
92.446400	3.012390	0.030124
92.575200	3.011770	0.030118
92.701900	3.011160	0.030112
92.828200	3.010580	0.030106
92.952900	3.010040	0.030100
93.078300	3.009520	0.030095
93.203800	3.009100	0.030091
93.329200	3.008710	0.030087
93.453100	3.008600	0.030086
93.575100	3.008630	0.030086
93.697900	3.008830	0.030088
93.819900	3.009170	0.030092
93.941600	3.009640	0.030096
94.061000	3.010180	0.030102
94.180900	3.010740	0.030107
94.298200	3.011330	0.030113
94.415800	3.011820	0.030118
94.531700	3.012390	0.030124
94.647300	3.012910	0.030129
94.761100	3.013390	0.030134
94.873600	3.013810	0.030138
94.986700	3.014140	0.030141
95.097500	3.014380	0.030144
95.209100	3.014530	0.030145
95.317800	3.014600	0.030146
95.427500	3.014590	0.030146
95.535500	3.014500	0.030145
95.642000	3.014340	0.030143
95.747100	3.014110	0.030141
95.848900	3.013830	0.030138
95.950100	3.013480	0.030135
96.050300	3.013090	0.030131
96.148600	3.012620	0.030126
96.247200	3.012110	0.030121
96.344000	3.011530	0.030115
96.441800	3.010900	0.030109
96.539200	3.010250	0.030103
96.636600	3.009790	0.030098
96.733400	3.009120	0.030091
96.828800	3.008530	0.030085
96.924900	3.008060	0.030081
97.021900	3.007680	0.030077
97.118300	3.007420	0.030074
97.216400	3.007290	0.030073
97.316600	3.007270	0.030073
97.419000	3.007330	0.030073
97.521600	3.007470	0.030075
97.625600	3.007620	0.030076
97.729300	3.007830	0.030078
97.834700	3.008090	0.030081
97.940900	3.008440	0.030084
98.047400	3.008770	0.030088
98.153500	3.009080	0.030091
98.260000	3.009360	0.030094
98.368300	3.009600	0.030096
98.476700	3.009780	0.030098
98.584400	3.009900	0.030099
98.691700	3.009960	0.030100
98.798800	3.009990	0.030100
98.905200	3.009960	0.030100
99.013300	3.009930	0.030099
99.123100	3.009900	0.030099
99.234200	3.009890	0.030099
99.346700	3.009930	0.030099
99.461400	3.009980	0.030100
99.575200	3.010070	0.030101
99.689400	3.010180	0.030102
99.804000	3.010290	0.030103
99.918000	3.010440	0.030104
100.034000	3.010560	0.030106
100.149000	3.010710	0.030107
100.263000	3.010870	0.030109
100.381000	3.011080	0.030111
100.503000	3.011260	0.030113
100.622000	3.011330	0.030113
100.742000	3.011310	0.030113
100.862000	3.011170	0.030112
100.983000	3.010870	0.030109
101.105000	3.010430	0.030104
101.227000	3.009870	0.030099
101.350000	3.009210	0.030092
101.472000	3.008600	0.030086
101.595000	3.008020	0.030080
101.720000	3.007490	0.030075
101.847000	3.007000	0.030070
101.973000	3.006580	0.030066
102.099000	3.006250	0.030063
102.225000	3.006000	0.030060
102.352000	3.005860	0.030059
102.478000	3.005820	0.030058
102.605000	3.005870	0.030059
102.733000	3.005990	0.030060
102.860000	3.006190	0.030062
102.988000	3.006440	0.030064
103.116000	3.006720	0.030067
103.244000	3.007030	0.030070
103.371000	3.007380	0.030074
103.499000	3.007870	0.030079
103.627000	3.008240	0.030082
103.756000	3.008650	0.030087
103.884000	3.009090	0.030091
104.012000	3.009570	0.030096
104.143000	3.010080	0.030101
104.273000	3.010650	0.030107
104.404000	3.011230	0.030112
104.536000	3.011810	0.030118
104.668000	3.012330	0.030123
104.802000	3.012860	0.030129
104.934000	3.013110	0.030131
105.067000	3.013220	0.030132
105.198000	3.013180	0.030132
105.329000	3.012980	0.030130
105.458000	3.012660	0.030127
105.587000	3.012260	0.030123
105.716000	3.011820	0.030118
105.843000	3.011350	0.030114
105.970000	3.010890	0.030109
106.096000	3.010400	0.030104
106.222000	3.009940	0.030099
106.346000	3.009460	0.030095
106.468000	3.008990	0.030090
106.590000	3.008540	0.030085
106.711000	3.008090	0.030081
106.832000	3.007640	0.030076
106.950000	3.007210	0.030072
107.068000	3.006800	0.030068
107.186000	3.006390	0.030064
107.302000	3.006040	0.030060
107.417000	3.005690	0.030057
107.530000	3.005440	0.030054
107.643000	3.005320	0.030053
107.755000	3.005330	0.030053
107.867000	3.005540	0.030055
107.980000	3.005840	0.030058
108.093000	3.006280	0.030063
108.204000	3.006830	0.030068
108.314000	3.007450	0.030075
108.423000	3.007900	0.030079
108.531000	3.008530	0.030085
108.639000	3.009070	0.030091
108.746000	3.009460	0.030095
108.854000	3.009720	0.030097
108.962000	3.009840	0.030098
109.071000	3.009830	0.030098
109.179000	3.009670	0.030097
109.288000	3.009410	0.030094
109.396000	3.009100	0.030091
109.503000	3.008750	0.030088
109.609000	3.008400	0.030084
109.718000	3.008040	0.030080
109.827000	3.007680	0.030077
109.938000	3.007340	0.030073
110.047000	3.007010	0.030070
110.156000	3.006750	0.030068
110.267000	3.006540	0.030065
110.377000	3.006390	0.030064
110.487000	3.006300	0.030063
110.599000	3.006260	0.030063
110.710000	3.006550	0.030066
110.820000	3.006570	0.030066
110.931000	3.006660	0.030067
111.043000	3.006760	0.030068
111.157000	3.006900	0.030069
111.271000	3.007040	0.030070
111.385000	3.007190	0.030072
111.498000	3.007350	0.030074
111.612000	3.007490	0.030075
111.727000	3.007650	0.030077
111.841000	3.007760	0.030078
111.955000	3.007890	0.030079
112.070000	3.007980	0.030080
112.184000	3.008040	0.030080
112.299000	3.008030	0.030080
112.414000	3.008010	0.030080
112.528000	3.007950	0.030080
112.643000	3.007860	0.030079
112.758000	3.007750	0.030078
112.872000	3.007600	0.030076
112.988000	3.007440	0.030074
113.104000	3.007230	0.030072
113.220000	3.006980	0.030070
113.336000	3.006710	0.030067
113.453000	3.006470	0.030065
113.572000	3.006260	0.030063
113.692000	3.006110	0.030061
113.810000	3.006000	0.030060
113.928000	3.005950	0.030060
114.047000	3.005950	0.030060
114.167000	3.006010	0.030060
114.290000	3.006100	0.030061
114.414000	3.006210	0.030062
114.535000	3.006300	0.030063
114.657000	3.006390	0.030064
114.780000	3.006560	0.030066
114.905000	3.006730	0.030067
115.031000	3.006900	0.030069
115.159000	3.007070	0.030071
115.287000	3.007070	0.030071
115.417000	3.007200	0.030072
115.552000	3.007250	0.030073
115.683000	3.007220	0.030072
115.814000	3.007100	0.030071
115.948000	3.006880	0.030069
116.082000	3.006550	0.030066
116.215000	3.006140	0.030061
116.352000	3.005660	0.030057
116.486000	3.005150	0.030052
116.623000	3.004610	0.030046
116.762000	3.004050	0.030041
116.900000	3.003480	0.030035
117.037000	3.002920	0.030029
117.172000	3.002370	0.030024
117.307000	3.001840	0.030018
117.441000	3.001340	0.030013
117.576000	3.000880	0.030009
117.710000	3.000490	0.030005
117.844000	3.000190	0.030002
117.978000	3.000030	0.030000
118.111000	2.999980	0.030000
118.245000	2.999890	0.029999
118.379000	3.000070	0.030001
118.512000	3.000380	0.030004
118.646000	3.000840	0.030008
118.780000	3.001430	0.030014
118.913000	3.002100	0.030021
119.046000	3.002830	0.030028
119.179000	3.003600	0.030036
119.315000	3.004350	0.030044
119.450000	3.005120	0.030051
119.582000	3.005800	0.030058
119.714000	3.006400	0.030064
119.846000	3.006830	0.030068
119.977000	3.007050	0.030071
120.109000	3.007140	0.030071
120.240000	3.007050	0.030071
120.370000	3.006800	0.030068
120.499000	3.006440	0.030064
120.626000	3.005990	0.030060
120.753000	3.005490	0.030055
120.880000	3.004950	0.030050
121.009000	3.004400	0.030044
121.139000	3.003830	0.030038
121.269000	3.003260	0.030033
121.399000	3.002660	0.030027
121.528000	3.002100	0.030021
121.657000	3.001530	0.030015
121.785000	3.000960	0.030010
121.912000	3.000400	0.030004
122.039000	2.999840	0.029998
122.165000	2.999280	0.029993
122.292000	2.998810	0.029988
122.420000	2.998380	0.029984
122.547000	2.998060	0.029981
122.676000	2.997830	0.029978
122.806000	2.997730	0.029977
122.937000	2.997730	0.029977
123.069000	2.997850	0.029979
123.202000	2.998040	0.029980
123.332000	2.997970	0.029980
123.462000	2.998250	0.029983
123.597000	2.998500	0.029985
123.733000	2.998740	0.029987
123.870000	2.998970	0.029990
124.007000	2.999190	0.029992
124.141000	2.999410	0.029994
124.276000	2.999620	0.029996
124.414000	2.999850	0.029999
124.550000	3.000070	0.030001
124.687000	3.000300	0.030003
124.822000	3.000510	0.030005
124.956000	3.000690	0.030007
125.088000	3.000840	0.030008
125.222000	3.000970	0.030010
125.353000	3.001050	0.030011
125.483000	3.001120	0.030011
125.616000	3.001160	0.030012
125.750000	3.001190	0.030012
125.885000	3.001220	0.030012
126.019000	3.001220	0.030012
126.155000	3.001210	0.030012
126.289000	3.001180	0.030012
126.424000	3.001100	0.030011
126.558000	3.000930	0.030009
126.688000	3.000670	0.030007
126.819000	3.000310	0.030003
126.951000	2.999930	0.029999
127.084000	2.999400	0.029994
127.221000	2.998810	0.029988
127.357000	2.998160	0.029982
127.494000	2.997480	0.029975
127.631000	2.996830	0.029968
127.768000	2.996270	0.029963
127.905000	2.995780	0.029958
128.040000	2.995280	0.029953
128.174000	2.994880	0.029949
128.307000	2.994540	0.029945
128.441000	2.994280	0.029943
128.574000	2.994110	0.029941
128.708000	2.994020	0.029940
128.843000	2.994010	0.029940
128.978000	2.994100	0.029941
129.114000	2.994250	0.029943
129.247000	2.994480	0.029945
129.381000	2.994760	0.029948
129.517000	2.995100	0.029951
129.653000	2.995490	0.029955
129.788000	2.995880	0.029959
129.923000	2.996350	0.029964
130.058000	2.996830	0.029968
130.193000	2.997320	0.029973
130.330000	2.997790	0.029978
130.470000	2.998300	0.029983
130.610000	2.998730	0.029987
130.752000	2.999130	0.029991
130.894000	2.999520	0.029995
131.037000	2.999830	0.029998
131.179000	3.000100	0.030001
131.320000	3.000260	0.030003
131.463000	3.000300	0.030003
131.607000	3.000400	0.030004
131.751000	3.000230	0.030002
131.898000	2.999920	0.029999
132.046000	2.999460	0.029995
132.195000	2.998870	0.029989
132.344000	2.998180	0.029982
132.494000	2.997420	0.029974
132.643000	2.996620	0.029966
132.792000	2.995790	0.029958
132.940000	2.994960	0.029950
133.084000	2.994110	0.029941
133.225000	2.993270	0.029933
133.364000	2.992460	0.029925
133.502000	2.991700	0.029917
133.639000	2.991000	0.029910
133.776000	2.990380	0.029904
133.913000	2.989880	0.029899
134.050000	2.989500	0.029895
134.186000	2.989220	0.029892
134.323000	2.989120	0.029891
134.460000	2.989180	0.029892
134.596000	2.989380	0.029894
134.732000	2.989760	0.029898
134.868000	2.990240	0.029902
135.003000	2.990830	0.029908
135.140000	2.991510	0.029915
135.278000	2.992250	0.029923
135.415000	2.993020	0.029930
135.553000	2.993840	0.029938
135.691000	2.994640	0.029946
135.829000	2.995430	0.029954
135.967000	2.996100	0.029961
136.105000	2.996660	0.029967
136.243000	2.997050	0.029971
136.383000	2.997260	0.029973
136.521000	2.997270	0.029973
136.662000	2.997100	0.029971
136.802000	2.996770	0.029968
136.943000	2.996310	0.029963
137.085000	2.995790	0.029958
137.228000	2.995200	0.029952
137.373000	2.994580	0.029946
137.516000	2.993910	0.029939
137.660000	2.993210	0.029932
137.804000	2.992480	0.029925
137.946000	2.991730	0.029917
138.088000	2.990960	0.029910
138.231000	2.990190	0.029902
138.375000	2.989430	0.029894
138.520000	2.988670	0.029887
138.665000	2.987950	0.029880
138.812000	2.987300	0.029873
138.959000	2.986720	0.029867
139.106000	2.986270	0.029863
139.251000	2.985950	0.029860
139.395000	2.985780	0.029858
139.538000	2.985760	0.029858
139.681000	2.985870	0.029859
139.825000	2.986140	0.029861
139.969000	2.986520	0.029865
140.114000	2.987000	0.029870
140.258000	2.987560	0.029876
140.405000	2.988150	0.029882
140.552000	2.988750	0.029888
140.697000	2.989350	0.029894
140.844000	2.989930	0.029899
140.991000	2.990450	0.029905
141.134000	2.991010	0.029910
141.278000	2.991540	0.029915
141.421000	2.992020	0.029920
141.562000	2.992440	0.029924
141.704000	2.992730	0.029927
141.845000	2.992910	0.029929
141.985000	2.992950	0.029930
142.124000	2.992880	0.029929
142.261000	2.992700	0.029927
142.397000	2.992410	0.029924
142.531000	2.992050	0.029921
142.664000	2.991590	0.029916
142.796000	2.991070	0.029911
142.927000	2.990490	0.029905
143.055000	2.989860	0.029899
143.185000	2.989200	0.029892
143.315000	2.988500	0.029885
143.445000	2.987770	0.029878
143.577000	2.987040	0.029870
143.711000	2.986310	0.029863
143.847000	2.985630	0.029856
143.984000	2.984930	0.029849
144.123000	2.984260	0.029843
144.263000	2.983620	0.029836
144.404000	2.983030	0.029830
144.546000	2.982430	0.029824
144.687000	2.981940	0.029819
144.828000	2.981490	0.029815
144.972000	2.981050	0.029811
145.115000	2.980670	0.029807
145.258000	2.980260	0.029803
145.403000	2.979870	0.029799
145.547000	2.979510	0.029795
145.690000	2.979190	0.029792
145.834000	2.978950	0.029790
145.977000	2.978770	0.029788
146.120000	2.978690	0.029787
146.264000	2.978700	0.029787
146.406000	2.978810	0.029788
146.548000	2.979010	0.029790
146.689000	2.979280	0.029793
146.829000	2.979650	0.029797
146.968000	2.980060	0.029801
147.108000	2.980490	0.029805
147.247000	2.980940	0.029809
147.388000	2.981400	0.029814
147.529000	2.981850	0.029819
147.670000	2.982320	0.029823
147.812000	2.982770	0.029828
147.954000	2.983180	0.029832
148.096000	2.983510	0.029835
148.236000	2.983780	0.029838
148.378000	2.983940	0.029839
148.520000	2.983990	0.029840
148.664000	2.983900	0.029839
148.808000	2.983640	0.029836
148.951000	2.983270	0.029833
149.095000	2.982780	0.029828
149.239000	2.982180	0.029822
149.383000	2.981520	0.029815
149.528000	2.980790	0.029808
149.673000	2.979990	0.029800
149.820000	2.979160	0.029792
149.966000	2.978270	0.029783
150.113000	2.977360	0.029774
150.257000	2.976450	0.029765
150.400000	2.975550	0.029756
150.544000	2.974680	0.029747
150.688000	2.973830	0.029738
150.830000	2.973010	0.029730
150.973000	2.972210	0.029722
151.115000	2.971440	0.029714
151.257000	2.970690	0.029707
151.398000	2.969970	0.029700
151.539000	2.969290	0.029693
151.680000	2.968670	0.029687
151.823000	2.968110	0.029681
151.964000	2.967530	0.029675
152.106000	2.967100	0.029671
152.246000	2.966700	0.029667
152.386000	2.966370	0.029664
152.529000	2.966050	0.029661
152.672000	2.965840	0.029658
152.816000	2.965660	0.029657
152.963000	2.965500	0.029655
153.110000	2.965340	0.029653
153.260000	2.965110	0.029651
153.410000	2.964810	0.029648
153.563000	2.964410	0.029644
153.718000	2.963920	0.029639
153.873000	2.963330	0.029633
154.028000	2.962630	0.029626
154.184000	2.961850	0.029619
154.341000	2.960990	0.029610
154.498000	2.960080	0.029601
154.654000	2.959150	0.029592
154.810000	2.958210	0.029582
154.963000	2.957270	0.029573
155.115000	2.956300	0.029563
155.266000	2.955320	0.029553
155.415000	2.954330	0.029543
155.565000	2.953340	0.029533
155.713000	2.952330	0.029523
155.861000	2.951340	0.029513
156.009000	2.950380	0.029504
156.158000	2.949450	0.029495
156.306000	2.948550	0.029486
156.454000	2.947700	0.029477
156.603000	2.946840	0.029468
156.751000	2.946040	0.029460
156.898000	2.945290	0.029453
157.044000	2.944580	0.029446
157.190000	2.943920	0.029439
157.336000	2.943330	0.029433
157.483000	2.942790	0.029428
157.629000	2.942310	0.029423
157.774000	2.941890	0.029419
157.920000	2.941530	0.029415
158.065000	2.941180	0.029412
158.209000	2.940860	0.029409
158.353000	2.940560	0.029406
158.496000	2.940240	0.029402
158.639000	2.939920	0.029399
158.782000	2.939600	0.029396
158.925000	2.939270	0.029393
159.069000	2.938920	0.029389
159.213000	2.938560	0.029386
159.356000	2.938170	0.029382
159.500000	2.937760	0.029378
159.641000	2.937330	0.029373
159.781000	2.936880	0.029369
159.922000	2.936390	0.029364
160.064000	2.935870	0.029359
160.205000	2.935290	0.029353
160.350000	2.934640	0.029346
160.493000	2.933910	0.029339
160.634000	2.933070	0.029331
160.775000	2.932130	0.029321
160.917000	2.931100	0.029311
161.058000	2.929970	0.029300
161.200000	2.928760	0.029288
161.343000	2.927470	0.029275
161.484000	2.926140	0.029261
161.626000	2.924760	0.029248
161.769000	2.923370	0.029234
161.911000	2.921940	0.029219
162.054000	2.920480	0.029205
162.197000	2.918950	0.029190
162.341000	2.917380	0.029174
162.485000	2.915760	0.029158
162.628000	2.914080	0.029141
162.771000	2.912360	0.029124
162.917000	2.910580	0.029106
163.061000	2.908780	0.029088
163.206000	2.906960	0.029070
163.352000	2.905130	0.029051
163.498000	2.903320	0.029033
163.643000	2.901530	0.029015
163.790000	2.899760	0.028998
163.934000	2.898000	0.028980
164.079000	2.896270	0.028963
164.223000	2.894570	0.028946
164.367000	2.892900	0.028929
164.509000	2.891270	0.028913
164.650000	2.889660	0.028897
164.791000	2.888090	0.028881
164.932000	2.886540	0.028865
165.072000	2.885010	0.028850
165.213000	2.883490	0.028835
165.353000	2.882000	0.028820
165.493000	2.880530	0.028805
165.633000	2.879080	0.028791
165.775000	2.877660	0.028777
165.915000	2.876250	0.028763
166.056000	2.874840	0.028748
166.199000	2.873410	0.028734
166.340000	2.871960	0.028720
166.481000	2.870550	0.028706
166.623000	2.869010	0.028690
166.764000	2.867420	0.028674
166.904000	2.865750	0.028658
167.044000	2.864030	0.028640
167.183000	2.862190	0.028622
167.319000	2.860290	0.028603
167.456000	2.858330	0.028583
167.594000	2.856310	0.028563
167.733000	2.854240	0.028542
167.872000	2.852130	0.028521
168.011000	2.849980	0.028500
168.150000	2.847790	0.028478
168.290000	2.845570	0.028456
168.430000	2.843310	0.028433
168.570000	2.841040	0.028410
168.711000	2.838720	0.028387
168.851000	2.836370	0.028364
168.992000	2.834020	0.028340
169.133000	2.831680	0.028317
169.275000	2.829350	0.028294
169.416000	2.827050	0.028271
169.556000	2.824830	0.028248
169.696000	2.822610	0.028226
169.836000	2.820460	0.028205
169.977000	2.818390	0.028184
170.118000	2.816400	0.028164
170.260000	2.814460	0.028145
170.403000	2.812580	0.028126
170.545000	2.810730	0.028107
170.689000	2.808900	0.028089
170.834000	2.807120	0.028071
170.975000	2.805320	0.028053
171.121000	2.803480	0.028035
171.267000	2.801620	0.028016
171.414000	2.799710	0.027997
171.560000	2.797760	0.027978
171.708000	2.795740	0.027957
171.856000	2.793670	0.027937
172.001000	2.791540	0.027915
172.146000	2.789340	0.027893
172.290000	2.787050	0.027871
172.434000	2.784700	0.027847
172.578000	2.782270	0.027823
172.721000	2.779770	0.027798
172.864000	2.777200	0.027772
173.003000	2.774540	0.027745
173.144000	2.771820	0.027718
173.283000	2.769030	0.027690
173.422000	2.766170	0.027662
173.561000	2.763250	0.027633
173.700000	2.760260	0.027603
173.839000	2.757220	0.027572
173.978000	2.754210	0.027542
174.117000	2.751060	0.027511
174.256000	2.747890	0.027479
174.395000	2.744670	0.027447
174.535000	2.741410	0.027414
174.675000	2.738100	0.027381
174.815000	2.734760	0.027348
174.956000	2.731380	0.027314
175.096000	2.727940	0.027279
175.236000	2.724460	0.027245
175.377000	2.720920	0.027209
175.516000	2.717320	0.027173
175.656000	2.713660	0.027137
175.796000	2.709970	0.027100
175.936000	2.706200	0.027062
176.075000	2.702380	0.027024
176.214000	2.698500	0.026985
176.354000	2.694580	0.026946
176.493000	2.690590	0.026906
176.633000	2.686550	0.026866
176.772000	2.682460	0.026825
176.913000	2.678300	0.026783
177.055000	2.674080	0.026741
177.197000	2.669790	0.026698
177.340000	2.665430	0.026654
177.483000	2.660990	0.026610
177.627000	2.656450	0.026565
177.773000	2.651840	0.026518
177.920000	2.647120	0.026471
178.068000	2.642320	0.026423
178.215000	2.637430	0.026374
178.362000	2.632430	0.026324
178.509000	2.627390	0.026274
178.655000	2.622340	0.026223
178.800000	2.617270	0.026173
178.945000	2.612230	0.026122
179.089000	2.607200	0.026072
179.233000	2.602200	0.026022
179.375000	2.597200	0.025972
179.517000	2.592200	0.025922
179.658000	2.587190	0.025872
179.800000	2.582170	0.025822
179.941000	2.577110	0.025771
180.083000	2.572010	0.025720
180.226000	2.566890	0.025669
180.369000	2.561740	0.025617
180.510000	2.556580	0.025566
180.653000	2.551410	0.025514
180.797000	2.546250	0.025463
180.941000	2.541120	0.025411
181.086000	2.536010	0.025360
181.231000	2.530950	0.025310
181.375000	2.525920	0.025259
181.517000	2.520930	0.025209
181.660000	2.515980	0.025160
181.800000	2.511070	0.025111
181.941000	2.506190	0.025062
182.081000	2.501350	0.025014
182.222000	2.496520	0.024965
182.362000	2.491690	0.024917
182.504000	2.486870	0.024869
182.649000	2.482040	0.024820
182.796000	2.477170	0.024772
182.943000	2.472330	0.024723
183.092000	2.467480	0.024675
183.241000	2.462620	0.024626
183.393000	2.457770	0.024578
183.546000	2.452900	0.024529
183.702000	2.448000	0.024480
183.858000	2.443000	0.024430
184.015000	2.438000	0.024380
184.171000	2.432890	0.024329
184.325000	2.427690	0.024277
184.476000	2.422380	0.024224
184.626000	2.416980	0.024170
184.776000	2.411500	0.024115
184.925000	2.405940	0.024059
185.075000	2.400320	0.024003
185.223000	2.394640	0.023946
185.372000	2.388910	0.023889
185.521000	2.383130	0.023831
185.672000	2.377310	0.023773
185.822000	2.371460	0.023715
185.973000	2.365550	0.023656
186.125000	2.359620	0.023596
186.274000	2.353640	0.023536
186.426000	2.347620	0.023476
186.577000	2.341540	0.023415
186.727000	2.335400	0.023354
186.878000	2.329200	0.023292
187.029000	2.322930	0.023229
187.180000	2.316580	0.023166
187.331000	2.310170	0.023102
187.481000	2.303710	0.023037
187.630000	2.297220	0.022972
187.778000	2.290690	0.022907
187.926000	2.284120	0.022841
188.073000	2.277510	0.022775
188.220000	2.270840	0.022708
188.366000	2.264120	0.022641
188.512000	2.257240	0.022572
188.658000	2.250360	0.022504
188.803000	2.243360	0.022434
188.948000	2.236270	0.022363
189.092000	2.229060	0.022291
189.235000	2.221750	0.022218
189.379000	2.214340	0.022143
189.523000	2.206810	0.022068
189.666000	2.199190	0.021992
189.810000	2.191470	0.021915
189.951000	2.183650	0.021837
190.089000	2.175730	0.021757
190.224000	2.167720	0.021677
190.359000	2.159620	0.021596
190.494000	2.151460	0.021515
190.630000	2.143250	0.021433
190.767000	2.135040	0.021350
190.903000	2.126840	0.021268
191.040000	2.118680	0.021187
191.176000	2.110580	0.021106
191.312000	2.102550	0.021026
191.450000	2.094600	0.020946
191.586000	2.086720	0.020867
191.721000	2.078990	0.020790
191.855000	2.071350	0.020714
191.987000	2.063820	0.020638
192.118000	2.056410	0.020564
192.251000	2.049190	0.020492
192.383000	2.042180	0.020422
192.517000	2.035400	0.020354
192.650000	2.028840	0.020288
192.784000	2.022500	0.020225
192.918000	2.016340	0.020163
193.052000	2.010290	0.020103
193.185000	2.004350	0.020044
193.318000	1.998390	0.019984
193.448000	1.992450	0.019925
193.580000	1.986500	0.019865
193.715000	1.980560	0.019806
193.851000	1.974600	0.019746
193.989000	1.968620	0.019686
194.126000	1.962600	0.019626
194.264000	1.956540	0.019565
194.403000	1.950430	0.019504
194.544000	1.944250	0.019443
194.686000	1.938030	0.019380
194.830000	1.931730	0.019317
194.977000	1.925350	0.019254
195.126000	1.918870	0.019189
195.277000	1.912250	0.019123
195.427000	1.905500	0.019055
195.578000	1.898610	0.018986
195.728000	1.891560	0.018916
195.880000	1.884360	0.018844
196.030000	1.877000	0.018770
196.181000	1.869510	0.018695
196.329000	1.861890	0.018619
196.476000	1.854170	0.018542
196.621000	1.846380	0.018464
196.765000	1.838510	0.018385
196.908000	1.830580	0.018306
197.050000	1.822570	0.018226
197.191000	1.814510	0.018145
197.331000	1.806400	0.018064
197.470000	1.798210	0.017982
197.608000	1.789950	0.017900
197.746000	1.781620	0.017816
197.885000	1.773200	0.017732
198.023000	1.764740	0.017647
198.161000	1.756250	0.017563
198.299000	1.747750	0.017478
198.437000	1.739280	0.017393
198.575000	1.730830	0.017308
198.713000	1.722440	0.017224
198.850000	1.714100	0.017141
198.985000	1.705840	0.017058
199.122000	1.697640	0.016976
199.259000	1.689500	0.016895
199.396000	1.681430	0.016814
199.534000	1.673390	0.016734
199.674000	1.665410	0.016654
199.814000	1.657470	0.016575
199.955000	1.649580	0.016496
200.097000	1.641720	0.016417
200.241000	1.633900	0.016339
200.386000	1.626120	0.016261
200.536000	1.618400	0.016184
200.691000	1.610750	0.016108
200.846000	1.603200	0.016032
201.002000	1.595750	0.015958
201.158000	1.588430	0.015884
201.313000	1.581230	0.015812
201.469000	1.574150	0.015742
201.624000	1.567150	0.015672
201.779000	1.560230	0.015602
201.935000	1.553380	0.015534
202.089000	1.546590	0.015466
202.245000	1.539870	0.015399
202.399000	1.533230	0.015332
202.555000	1.526670	0.015267
202.711000	1.520200	0.015202
202.868000	1.513830	0.015138
203.024000	1.507570	0.015076
203.179000	1.501420	0.015014
203.334000	1.495380	0.014954
203.489000	1.489460	0.014895
203.641000	1.483650	0.014837
203.792000	1.477960	0.014780
203.943000	1.472390	0.014724
204.095000	1.466940	0.014669
204.246000	1.461620	0.014616
204.397000	1.456430	0.014564
204.548000	1.451370	0.014514
204.696000	1.446440	0.014464
204.842000	1.441600	0.014416
204.985000	1.436870	0.014369
205.128000	1.432230	0.014322
205.266000	1.427620	0.014276
205.403000	1.423030	0.014230
205.541000	1.418430	0.014184
205.675000	1.413810	0.014138
205.809000	1.409160	0.014092
205.943000	1.404490	0.014045
206.077000	1.399710	0.013997
206.212000	1.394860	0.013949
206.346000	1.389900	0.013899
206.480000	1.384810	0.013848
206.614000	1.379500	0.013795
206.747000	1.373960	0.013740
206.881000	1.368180	0.013682
207.016000	1.362120	0.013621
207.151000	1.355790	0.013558
207.288000	1.349200	0.013492
207.427000	1.342380	0.013424
207.566000	1.335350	0.013354
207.706000	1.328170	0.013282
207.844000	1.320840	0.013208
207.985000	1.313380	0.013134
208.125000	1.305800	0.013058
208.266000	1.298110	0.012981
208.407000	1.290320	0.012903
208.547000	1.282460	0.012825
208.685000	1.274550	0.012746
208.823000	1.266580	0.012666
208.962000	1.258580	0.012586
209.100000	1.250590	0.012506
209.238000	1.242590	0.012426
209.377000	1.234590	0.012346
209.515000	1.226630	0.012266
209.654000	1.218770	0.012188
209.795000	1.210990	0.012110
209.933000	1.203350	0.012034
210.071000	1.195860	0.011959
210.210000	1.188550	0.011886
210.348000	1.181430	0.011814
210.484000	1.174440	0.011744
210.620000	1.167600	0.011676
210.755000	1.160880	0.011609
210.888000	1.154240	0.011542
211.024000	1.147720	0.011477
211.160000	1.141280	0.011413
211.295000	1.134920	0.011349
211.431000	1.128650	0.011287
211.566000	1.122440	0.011224
211.703000	1.116310	0.011163
211.839000	1.110240	0.011102
211.976000	1.104210	0.011042
212.111000	1.098240	0.010982
212.247000	1.092290	0.010923
212.382000	1.086370	0.010864
212.517000	1.080420	0.010804
212.652000	1.074440	0.010744
212.784000	1.068440	0.010684
212.916000	1.062390	0.010624
213.048000	1.056280	0.010563
213.180000	1.050100	0.010501
213.311000	1.043880	0.010439
213.440000	1.037600	0.010376
213.567000	1.031280	0.010313
213.694000	1.024920	0.010249
213.822000	1.018520	0.010185
213.949000	1.012120	0.010121
214.079000	1.005690	0.010057
214.210000	0.999280	0.009993
214.341000	0.992860	0.009929
214.471000	0.986486	0.009865
214.601000	0.980128	0.009801
214.731000	0.973784	0.009738
214.861000	0.967442	0.009674
214.992000	0.961119	0.009611
215.123000	0.954780	0.009548
215.253000	0.948461	0.009485
215.386000	0.942174	0.009422
215.519000	0.935930	0.009359
215.651000	0.929732	0.009297
215.783000	0.923599	0.009236
215.916000	0.917554	0.009176
216.049000	0.911560	0.009116
216.181000	0.905634	0.009056
216.312000	0.899765	0.008998
216.444000	0.893961	0.008940
216.578000	0.888202	0.008882
216.711000	0.882489	0.008825
216.845000	0.876812	0.008768
216.977000	0.871177	0.008712
217.110000	0.865578	0.008656
217.241000	0.860007	0.008600
217.371000	0.854447	0.008544
217.502000	0.848906	0.008489
217.633000	0.843368	0.008434
217.765000	0.837828	0.008378
217.899000	0.832270	0.008323
218.031000	0.826624	0.008266
218.164000	0.821026	0.008210
218.297000	0.815419	0.008154
218.431000	0.809802	0.008098
218.565000	0.804178	0.008042
218.701000	0.798572	0.007986
218.837000	0.792960	0.007930
218.972000	0.787343	0.007873
219.107000	0.781672	0.007817
219.240000	0.775940	0.007759
219.376000	0.770118	0.007701
219.509000	0.764207	0.007642
219.642000	0.758235	0.007582
219.777000	0.752207	0.007522
219.911000	0.746135	0.007461
220.046000	0.739975	0.007400
220.182000	0.733844	0.007338
220.319000	0.727712	0.007277
220.457000	0.721618	0.007216
220.596000	0.715574	0.007156
220.734000	0.709611	0.007096
220.874000	0.703728	0.007037
221.010000	0.697943	0.006979
221.147000	0.692277	0.006923
221.283000	0.686736	0.006867
221.418000	0.681354	0.006814
221.550000	0.676107	0.006761
221.682000	0.671010	0.006710
221.813000	0.666061	0.006661
221.945000	0.661242	0.006612
222.078000	0.656558	0.006566
222.208000	0.651993	0.006520
222.338000	0.647555	0.006476
222.467000	0.643189	0.006432
222.597000	0.638916	0.006389
222.729000	0.634763	0.006348
222.861000	0.630716	0.006307
222.990000	0.626819	0.006268
223.118000	0.623040	0.006230
223.247000	0.619356	0.006194
223.380000	0.615729	0.006157
223.515000	0.612122	0.006121
223.652000	0.608536	0.006085
223.789000	0.604956	0.006050
223.928000	0.601377	0.006014
224.069000	0.597770	0.005978
224.209000	0.594145	0.005941
224.349000	0.590504	0.005905
224.490000	0.586835	0.005868
224.632000	0.583160	0.005832
224.775000	0.579476	0.005795
224.916000	0.575802	0.005758
225.058000	0.572106	0.005721
225.201000	0.568423	0.005684
225.345000	0.564756	0.005648
225.486000	0.561117	0.005611
225.627000	0.557463	0.005575
225.769000	0.553810	0.005538
225.910000	0.550189	0.005502
226.050000	0.546595	0.005466
226.188000	0.543028	0.005430
226.327000	0.539509	0.005395
226.466000	0.536043	0.005360
226.603000	0.532636	0.005326
226.739000	0.529294	0.005293
226.874000	0.525960	0.005260
227.008000	0.522736	0.005227
227.138000	0.519583	0.005196
227.268000	0.516482	0.005165
227.399000	0.513442	0.005134
227.531000	0.510460	0.005105
227.664000	0.507509	0.005075
227.799000	0.504604	0.005046
227.935000	0.501688	0.005017
228.073000	0.498775	0.004988
228.213000	0.495861	0.004959
228.354000	0.492939	0.004929
228.496000	0.489995	0.004900
228.638000	0.487027	0.004870
228.781000	0.484028	0.004840
228.924000	0.480974	0.004810
229.069000	0.477884	0.004779
229.215000	0.474736	0.004747
229.362000	0.471539	0.004715
229.511000	0.468277	0.004683
229.657000	0.464970	0.004650
229.806000	0.461616	0.004616
229.954000	0.458230	0.004582
230.100000	0.454808	0.004548
230.247000	0.451375	0.004514
230.391000	0.447935	0.004479
230.534000	0.444502	0.004445
230.675000	0.441105	0.004411
230.816000	0.437752	0.004378
230.956000	0.434471	0.004345
231.094000	0.431298	0.004313
231.232000	0.428239	0.004282
231.368000	0.425223	0.004252
231.504000	0.422393	0.004224
231.643000	0.419711	0.004197
231.782000	0.417214	0.004172
231.923000	0.414802	0.004148
232.063000	0.412515	0.004125
232.204000	0.410301	0.004103
232.344000	0.408142	0.004081
232.484000	0.406027	0.004060
232.626000	0.403951	0.004040
232.771000	0.401929	0.004019
232.918000	0.399987	0.004000
233.066000	0.398107	0.003981
233.214000	0.396325	0.003963
233.362000	0.394643	0.003946
233.512000	0.393052	0.003931
233.667000	0.391571	0.003916
233.820000	0.390203	0.003902
233.971000	0.388995	0.003890
234.123000	0.387830	0.003878
234.272000	0.386761	0.003868
234.421000	0.385771	0.003858
234.568000	0.384863	0.003849
234.714000	0.383986	0.003840
234.859000	0.383160	0.003832
235.004000	0.382361	0.003824
235.147000	0.381587	0.003816
235.290000	0.380823	0.003808
235.433000	0.380049	0.003800
235.575000	0.379289	0.003793
235.719000	0.378564	0.003786
235.862000	0.377908	0.003779
236.004000	0.377324	0.003773
236.147000	0.376843	0.003768
236.290000	0.376482	0.003765
236.431000	0.376243	0.003762
236.573000	0.376081	0.003761
236.717000	0.375992	0.003760
236.862000	0.375903	0.003759
237.007000	0.375784	0.003758
237.150000	0.375535	0.003755
237.297000	0.375179	0.003752
237.445000	0.374726	0.003747
237.595000	0.374187	0.003742
237.747000	0.373581	0.003736
237.901000	0.372921	0.003729
238.054000	0.372232	0.003722
238.205000	0.371546	0.003715
238.350000	0.370838	0.003708
238.489000	0.370172	0.003702
238.625000	0.369510	0.003695
238.761000	0.368858	0.003689
238.899000	0.368195	0.003682
239.037000	0.367533	0.003675
239.175000	0.366857	0.003669
239.313000	0.366184	0.003662
239.451000	0.365507	0.003655
239.589000	0.364822	0.003648
239.726000	0.364122	0.003641
239.862000	0.363430	0.003634
239.998000	0.362746	0.003627
240.136000	0.362047	0.003620
240.275000	0.361340	0.003613
240.414000	0.360623	0.003606
240.553000	0.359884	0.003599
240.694000	0.359169	0.003592
240.835000	0.358383	0.003584
240.976000	0.357594	0.003576
241.119000	0.356885	0.003569
241.262000	0.356192	0.003562
241.407000	0.355555	0.003556
241.551000	0.355009	0.003550
241.696000	0.354488	0.003545
241.844000	0.354030	0.003540
241.993000	0.353634	0.003536
242.144000	0.353280	0.003533
242.295000	0.352960	0.003530
242.445000	0.352655	0.003527
242.596000	0.352363	0.003524
242.744000	0.352063	0.003521
242.893000	0.351797	0.003518
243.041000	0.351504	0.003515
243.187000	0.351219	0.003512
243.332000	0.350957	0.003510
243.474000	0.350707	0.003507
243.616000	0.350496	0.003505
243.759000	0.350325	0.003503
243.900000	0.350197	0.003502
244.042000	0.350113	0.003501
244.185000	0.350084	0.003501
244.329000	0.350096	0.003501
244.472000	0.350146	0.003501
244.614000	0.350210	0.003502
244.757000	0.350291	0.003503
244.898000	0.350372	0.003504
245.040000	0.350429	0.003504
245.184000	0.350464	0.003505
245.328000	0.350443	0.003504
245.474000	0.350423	0.003504
245.620000	0.350279	0.003503
245.769000	0.350112	0.003501
245.918000	0.349802	0.003498
246.069000	0.349409	0.003494
246.221000	0.348952	0.003490
246.372000	0.348396	0.003484
246.522000	0.347755	0.003478
246.672000	0.347062	0.003471
246.819000	0.346338	0.003463
246.968000	0.345587	0.003456
247.118000	0.344838	0.003448
247.267000	0.344085	0.003441
247.416000	0.343356	0.003434
247.564000	0.342682	0.003427
247.711000	0.342057	0.003421
247.857000	0.341482	0.003415
248.005000	0.341001	0.003410
248.150000	0.340642	0.003406
248.294000	0.340420	0.003404
248.436000	0.340335	0.003403
248.576000	0.340382	0.003404
248.716000	0.340534	0.003405
248.855000	0.340785	0.003408
248.998000	0.341119	0.003411
249.143000	0.341552	0.003416
249.291000	0.342033	0.003420
249.439000	0.342553	0.003426
249.581000	0.343092	0.003431
249.720000	0.343642	0.003436
249.858000	0.344206	0.003442
249.998000	0.344767	0.003448
250.139000	0.345292	0.003453
250.281000	0.345720	0.003457
250.425000	0.346146	0.003461
250.572000	0.346359	0.003464
250.718000	0.346435	0.003464
250.865000	0.346403	0.003464
251.013000	0.346237	0.003462
251.159000	0.345979	0.003460
251.302000	0.345660	0.003457
251.448000	0.345309	0.003453
251.593000	0.344944	0.003449
251.739000	0.344571	0.003446
251.886000	0.344191	0.003442
252.032000	0.343805	0.003438
252.178000	0.343404	0.003434
252.325000	0.342972	0.003430
252.474000	0.342518	0.003425
252.621000	0.342032	0.003420
252.769000	0.341568	0.003416
252.915000	0.341059	0.003411
253.061000	0.340556	0.003406
253.207000	0.340074	0.003401
253.352000	0.339636	0.003396
253.499000	0.339231	0.003392
253.647000	0.338908	0.003389
253.795000	0.338689	0.003387
253.944000	0.338570	0.003386
254.096000	0.338561	0.003386
254.248000	0.338663	0.003387
254.400000	0.338880	0.003389
254.551000	0.339194	0.003392
254.700000	0.339592	0.003396
254.849000	0.340063	0.003401
254.997000	0.340579	0.003406
255.145000	0.341119	0.003411
255.291000	0.341654	0.003417
255.436000	0.342233	0.003422
255.583000	0.342815	0.003428
255.730000	0.343364	0.003434
255.877000	0.343855	0.003439
256.023000	0.344275	0.003443
256.164000	0.344595	0.003446
256.303000	0.344821	0.003448
256.441000	0.344926	0.003449
256.577000	0.344913	0.003449
256.711000	0.344804	0.003448
256.844000	0.344612	0.003446
256.979000	0.344353	0.003444
257.114000	0.344068	0.003441
257.247000	0.343762	0.003438
257.377000	0.343417	0.003434
257.507000	0.343092	0.003431
257.637000	0.342757	0.003428
257.767000	0.342414	0.003424
257.897000	0.342067	0.003421
258.029000	0.341710	0.003417
258.162000	0.341328	0.003413
258.294000	0.340935	0.003409
258.427000	0.340532	0.003405
258.562000	0.340133	0.003401
258.698000	0.339790	0.003398
258.835000	0.339517	0.003395
258.972000	0.339340	0.003393
259.110000	0.339242	0.003392
259.249000	0.339249	0.003392
259.390000	0.339345	0.003393
259.534000	0.339517	0.003395
259.679000	0.339754	0.003398
259.826000	0.339977	0.003400
259.975000	0.340256	0.003403
260.126000	0.340564	0.003406
260.282000	0.340854	0.003409
260.439000	0.341145	0.003411
260.593000	0.341432	0.003414
260.744000	0.341718	0.003417
260.892000	0.342002	0.003420
261.041000	0.342309	0.003423
261.189000	0.342620	0.003426
261.336000	0.342960	0.003430
261.484000	0.343310	0.003433
261.632000	0.343687	0.003437
261.780000	0.344064	0.003441
261.928000	0.344424	0.003444
262.077000	0.344769	0.003448
262.222000	0.345090	0.003451
262.367000	0.345361	0.003454
262.512000	0.345529	0.003455
262.655000	0.345591	0.003456
262.798000	0.345547	0.003455
262.942000	0.345407	0.003454
263.086000	0.345184	0.003452
263.229000	0.344862	0.003449
263.373000	0.344468	0.003445
263.515000	0.343996	0.003440
263.656000	0.343486	0.003435
263.796000	0.342948	0.003429
263.933000	0.342399	0.003424
264.070000	0.341855	0.003419
264.209000	0.341320	0.003413
264.347000	0.340834	0.003408
264.484000	0.340421	0.003404
264.623000	0.340312	0.003403
264.760000	0.340047	0.003400
264.899000	0.339949	0.003399
265.037000	0.339975	0.003400
265.176000	0.340070	0.003401
265.315000	0.340260	0.003403
265.454000	0.340495	0.003405
265.595000	0.340761	0.003408
265.736000	0.341040	0.003410
265.878000	0.341329	0.003413
266.021000	0.341619	0.003416
266.163000	0.341916	0.003419
266.306000	0.342201	0.003422
266.449000	0.342490	0.003425
266.594000	0.342800	0.003428
266.740000	0.343124	0.003431
266.889000	0.343468	0.003435
267.038000	0.343845	0.003438
267.189000	0.344254	0.003443
267.340000	0.344683	0.003447
267.493000	0.345142	0.003451
267.643000	0.345613	0.003456
267.790000	0.346076	0.003461
267.940000	0.346504	0.003465
268.091000	0.346846	0.003468
268.242000	0.347100	0.003471
268.393000	0.347253	0.003473
268.543000	0.347316	0.003473
268.691000	0.347283	0.003473
268.837000	0.347152	0.003472
268.978000	0.346955	0.003470
269.117000	0.346687	0.003467
269.257000	0.346368	0.003464
269.393000	0.346141	0.003461
269.530000	0.345762	0.003458
269.666000	0.345371	0.003454
269.801000	0.344936	0.003449
269.936000	0.344515	0.003445
270.072000	0.344083	0.003441
270.211000	0.343635	0.003436
270.349000	0.343207	0.003432
270.486000	0.342820	0.003428
270.625000	0.342517	0.003425
270.764000	0.342326	0.003423
270.903000	0.342255	0.003423
271.042000	0.342301	0.003423
271.180000	0.342463	0.003425
271.317000	0.342719	0.003427
271.456000	0.343077	0.003431
271.592000	0.343492	0.003435
271.722000	0.344004	0.003440
271.848000	0.344540	0.003445
271.971000	0.345108	0.003451
272.094000	0.345695	0.003457
272.218000	0.346290	0.003463
272.342000	0.346890	0.003469
272.467000	0.347496	0.003475
272.595000	0.348104	0.003481
272.725000	0.348700	0.003487
272.856000	0.349231	0.003492
272.986000	0.349696	0.003497
273.117000	0.350061	0.003501
273.251000	0.350345	0.003503
273.380000	0.350509	0.003505
273.506000	0.350564	0.003506
273.633000	0.350525	0.003505
273.762000	0.350402	0.003504
273.892000	0.350193	0.003502
274.025000	0.349940	0.003499
274.159000	0.349684	0.003497
274.297000	0.349433	0.003494
274.436000	0.349168	0.003492
274.573000	0.348905	0.003489
274.711000	0.348626	0.003486
274.849000	0.348366	0.003484
274.986000	0.348085	0.003481
275.123000	0.347797	0.003478
275.261000	0.347489	0.003475
275.394000	0.347178	0.003472
275.528000	0.346858	0.003469
275.665000	0.346549	0.003465
275.801000	0.346269	0.003463
275.937000	0.346045	0.003460
276.074000	0.345899	0.003459
276.211000	0.345844	0.003458
276.349000	0.345890	0.003459
276.489000	0.346035	0.003460
276.626000	0.346273	0.003463
276.761000	0.346594	0.003466
276.894000	0.346993	0.003470
277.027000	0.347461	0.003475
277.161000	0.347989	0.003480
277.295000	0.348553	0.003486
277.429000	0.349149	0.003491
277.563000	0.349759	0.003498
277.699000	0.350376	0.003504
277.834000	0.350985	0.003510
277.969000	0.351581	0.003516
278.104000	0.352127	0.003521
278.240000	0.352603	0.003526
278.379000	0.352808	0.003528
278.517000	0.353090	0.003531
278.654000	0.353362	0.003534
278.794000	0.353483	0.003535
278.934000	0.353514	0.003535
279.077000	0.353498	0.003535
279.223000	0.353439	0.003534
279.370000	0.353352	0.003534
279.516000	0.353258	0.003533
279.666000	0.353168	0.003532
279.815000	0.353077	0.003531
279.967000	0.352968	0.003530
280.120000	0.352866	0.003529
280.271000	0.352752	0.003528
280.422000	0.352630	0.003526
280.574000	0.352491	0.003525
280.726000	0.352337	0.003523
280.875000	0.352137	0.003521
281.023000	0.351919	0.003519
281.169000	0.351674	0.003517
281.316000	0.351371	0.003514
281.465000	0.351073	0.003511
281.615000	0.350795	0.003508
281.765000	0.350545	0.003505
281.917000	0.350372	0.003504
282.074000	0.350299	0.003503
282.235000	0.350327	0.003503
282.398000	0.350658	0.003507
282.561000	0.350906	0.003509
282.720000	0.351255	0.003513
282.877000	0.351674	0.003517
283.028000	0.352141	0.003521
283.177000	0.352658	0.003527
283.327000	0.353076	0.003531
283.480000	0.353610	0.003536
283.634000	0.354152	0.003542
283.789000	0.354695	0.003547
283.945000	0.355198	0.003552
284.104000	0.355671	0.003557
284.266000	0.356110	0.003561
284.425000	0.356510	0.003565
284.582000	0.356863	0.003569
284.737000	0.357135	0.003571
284.887000	0.357309	0.003573
285.039000	0.357383	0.003574
285.189000	0.357375	0.003574
285.337000	0.357277	0.003573
285.481000	0.357092	0.003571
285.625000	0.356825	0.003568
285.768000	0.356501	0.003565
285.911000	0.356101	0.003561
286.051000	0.355690	0.003557
286.191000	0.355269	0.003553
286.330000	0.354923	0.003549
286.467000	0.354535	0.003545
286.601000	0.354193	0.003542
286.736000	0.353950	0.003540
286.869000	0.353758	0.003538
287.000000	0.353648	0.003536
287.128000	0.353647	0.003536
287.255000	0.353705	0.003537
287.381000	0.353841	0.003538
287.508000	0.354008	0.003540
287.639000	0.354207	0.003542
287.772000	0.354438	0.003544
287.904000	0.354692	0.003547
288.035000	0.354980	0.003550
288.165000	0.355292	0.003553
288.293000	0.355626	0.003556
288.420000	0.355940	0.003559
288.547000	0.356254	0.003563
288.677000	0.356564	0.003566
288.806000	0.356847	0.003568
288.935000	0.357114	0.003571
289.064000	0.357361	0.003574
289.192000	0.357589	0.003576
289.320000	0.357796	0.003578
289.446000	0.357983	0.003580
289.568000	0.358198	0.003582
289.688000	0.358362	0.003584
289.802000	0.358510	0.003585
289.912000	0.358631	0.003586
290.023000	0.358754	0.003588
290.134000	0.358844	0.003588
290.243000	0.358889	0.003589
290.353000	0.358862	0.003589
290.464000	0.358781	0.003588
290.573000	0.358648	0.003586
290.682000	0.358473	0.003585
290.790000	0.358282	0.003583
290.898000	0.358084	0.003581
291.004000	0.357878	0.003579
291.112000	0.357697	0.003577
291.220000	0.357542	0.003575
291.328000	0.357416	0.003574
291.434000	0.357317	0.003573
291.540000	0.357237	0.003572
291.646000	0.357159	0.003572
291.753000	0.357097	0.003571
291.858000	0.357037	0.003570
291.962000	0.356962	0.003570
292.065000	0.356906	0.003569
292.166000	0.356805	0.003568
292.267000	0.356797	0.003568
292.368000	0.356776	0.003568
292.470000	0.356763	0.003568
292.576000	0.356758	0.003568
292.681000	0.356837	0.003568
292.782000	0.356956	0.003570
292.880000	0.357109	0.003571
292.976000	0.357292	0.003573
293.068000	0.357495	0.003575
293.159000	0.357728	0.003577
293.246000	0.357973	0.003580
293.331000	0.358223	0.003582
293.414000	0.358482	0.003585
293.496000	0.358748	0.003587
293.578000	0.359032	0.003590
293.662000	0.359328	0.003593
293.743000	0.359646	0.003596
293.825000	0.360015	0.003600
293.906000	0.360383	0.003604
293.988000	0.360757	0.003608
294.070000	0.361098	0.003611
294.152000	0.361436	0.003614
294.236000	0.361687	0.003617
294.321000	0.361879	0.003619
294.406000	0.361775	0.003618
294.494000	0.361706	0.003617
294.582000	0.361614	0.003616
294.670000	0.361480	0.003615
294.756000	0.361330	0.003613
294.840000	0.361179	0.003612
294.926000	0.361027	0.003610
295.014000	0.360885	0.003609
295.100000	0.360748	0.003607
295.185000	0.360630	0.003606
295.268000	0.360519	0.003605
295.350000	0.360416	0.003604
295.431000	0.360328	0.003603
295.511000	0.360269	0.003603
295.589000	0.360225	0.003602
295.667000	0.360205	0.003602
295.743000	0.360204	0.003602
295.816000	0.360210	0.003602
295.885000	0.360206	0.003602
295.951000	0.360218	0.003602
296.016000	0.360232	0.003602
296.081000	0.360256	0.003603
296.145000	0.360288	0.003603
296.207000	0.360333	0.003603
296.269000	0.360390	0.003604
296.333000	0.360458	0.003605
296.396000	0.360567	0.003606
296.462000	0.360704	0.003607
296.535000	0.360866	0.003609
296.608000	0.361017	0.003610
296.682000	0.361197	0.003612
296.754000	0.361354	0.003614
296.823000	0.361442	0.003614
296.890000	0.361503	0.003615
296.955000	0.361530	0.003615
297.021000	0.361542	0.003615
297.086000	0.361553	0.003616
297.149000	0.361580	0.003616
297.212000	0.361600	0.003616
297.274000	0.361615	0.003616
297.332000	0.361636	0.003616
297.391000	0.361663	0.003617
297.447000	0.361688	0.003617
297.503000	0.361716	0.003617
297.556000	0.361738	0.003617
297.608000	0.361760	0.003618
297.660000	0.361797	0.003618
297.711000	0.361823	0.003618
297.762000	0.361856	0.003619
297.814000	0.361901	0.003619
297.866000	0.361864	0.003619
297.914000	0.361812	0.003618
297.962000	0.361830	0.003618
298.009000	0.361850	0.003619
298.053000	0.361943	0.003619
298.097000	0.362008	0.003620
298.141000	0.362087	0.003621
298.185000	0.362180	0.003622
298.228000	0.362318	0.003623
298.272000	0.362473	0.003625
298.315000	0.362654	0.003627
298.359000	0.362844	0.003628
298.401000	0.363028	0.003630
298.445000	0.363203	0.003632
298.490000	0.363345	0.003633
298.534000	0.363449	0.003634
298.577000	0.363505	0.003635
298.621000	0.363527	0.003635
298.665000	0.363513	0.003635
298.710000	0.363463	0.003635
298.755000	0.363404	0.003634
298.800000	0.363314	0.003633
298.846000	0.363214	0.003632
298.889000	0.363090	0.003631
298.931000	0.362952	0.003630
298.972000	0.362751	0.003628
299.013000	0.362546	0.003625
299.056000	0.362379	0.003624
299.098000	0.362240	0.003622
299.140000	0.362164	0.003622
299.182000	0.362067	0.003621
299.223000	0.361985	0.003620
299.264000	0.361929	0.003619
299.301000	0.361897	0.003619
299.335000	0.361889	0.003619
299.364000	0.361898	0.003619
299.388000	0.361930	0.003619
299.414000	0.361998	0.003620
299.445000	0.362114	0.003621
299.476000	0.362265	0.003623
299.508000	0.362450	0.003625
299.541000	0.362670	0.003627
299.576000	0.362916	0.003629
299.612000	0.363197	0.003632
299.651000	0.363455	0.003635
299.689000	0.363710	0.003637
299.727000	0.363957	0.003640
299.767000	0.364139	0.003641
299.807000	0.364311	0.003643
299.848000	0.364453	0.003645
299.886000	0.364553	0.003646
299.923000	0.364726	0.003647
299.962000	0.364856	0.003649
299.999000	0.364974	0.003650
300.036000	0.365070	0.003651
300.073000	0.365145	0.003651
300.104000	0.365217	0.003652
300.136000	0.365266	0.003653
300.168000	0.365307	0.003653
300.199000	0.365336	0.003653
300.228000	0.365352	0.003654
300.259000	0.365369	0.003654
300.288000	0.365372	0.003654
300.318000	0.365364	0.003654
300.347000	0.365348	0.003653
300.376000	0.365323	0.003653
300.406000	0.365297	0.003653
300.434000	0.365247	0.003652
300.463000	0.365237	0.003652
300.490000	0.365225	0.003652
300.518000	0.365243	0.003652
300.546000	0.365279	0.003653
300.571000	0.365339	0.003653
300.591000	0.365420	0.003654
300.607000	0.365524	0.003655
300.622000	0.365596	0.003656
300.639000	0.365627	0.003656
300.653000	0.365710	0.003657
300.668000	0.365769	0.003658
300.687000	0.365773	0.003658
300.709000	0.365727	0.003657
300.732000	0.365621	0.003656
300.758000	0.365488	0.003655
300.784000	0.365311	0.003653
300.810000	0.365111	0.003651
300.840000	0.364895	0.003649
300.870000	0.364675	0.003647
300.905000	0.364433	0.003644
300.941000	0.364200	0.003642
300.976000	0.363956	0.003640
301.009000	0.363710	0.003637
301.043000	0.363467	0.003635
301.078000	0.363245	0.003632
301.110000	0.363042	0.003630
301.139000	0.362855	0.003629
301.169000	0.362706	0.003627
301.198000	0.362588	0.003626
301.225000	0.362535	0.003625
301.252000	0.362565	0.003626
301.280000	0.362703	0.003627
301.307000	0.362998	0.003630
301.333000	0.363343	0.003633
301.360000	0.363769	0.003638
301.387000	0.364311	0.003643
301.412000	0.364863	0.003649
301.437000	0.365462	0.003655
301.462000	0.366070	0.003661
301.485000	0.366650	0.003667
301.509000	0.367226	0.003672
301.534000	0.367760	0.003678
301.562000	0.368200	0.003682
301.593000	0.368538	0.003685
301.622000	0.368758	0.003688
301.649000	0.368854	0.003689
301.677000	0.368861	0.003689
301.704000	0.368774	0.003688
301.731000	0.368616	0.003686
301.757000	0.368397	0.003684
301.783000	0.368150	0.003682
301.810000	0.367901	0.003679
301.836000	0.367639	0.003676
301.860000	0.367377	0.003674
301.882000	0.367125	0.003671
301.904000	0.366914	0.003669
301.925000	0.366821	0.003668
301.949000	0.366710	0.003667
301.974000	0.366631	0.003666
301.997000	0.366622	0.003666
302.018000	0.366701	0.003667
302.039000	0.366811	0.003668
302.061000	0.366971	0.003670
302.088000	0.367175	0.003672
302.113000	0.367398	0.003674
302.138000	0.367640	0.003676
302.164000	0.367910	0.003679
302.190000	0.368168	0.003682
302.214000	0.368423	0.003684
302.236000	0.368663	0.003687
302.259000	0.368879	0.003689
302.280000	0.369081	0.003691
302.303000	0.369240	0.003692
302.326000	0.369339	0.003693
302.351000	0.369351	0.003694
302.375000	0.369263	0.003693
302.398000	0.369113	0.003691
302.422000	0.368887	0.003689
302.445000	0.368609	0.003686
302.470000	0.368283	0.003683
302.499000	0.367924	0.003679
302.529000	0.367451	0.003675
302.560000	0.367100	0.003671
302.591000	0.366751	0.003668
302.623000	0.366398	0.003664
302.655000	0.366062	0.003661
302.686000	0.365746	0.003657
302.715000	0.365448	0.003654
302.744000	0.365154	0.003652
302.771000	0.364888	0.003649
302.796000	0.364645	0.003646
302.820000	0.364425	0.003644
302.841000	0.364239	0.003642
302.860000	0.364086	0.003641
302.877000	0.364015	0.003640
302.893000	0.364005	0.003640
302.907000	0.364066	0.003641
302.923000	0.364208	0.003642
302.938000	0.364430	0.003644
302.951000	0.364764	0.003648
302.959000	0.365149	0.003651
302.968000	0.365603	0.003656
302.974000	0.366106	0.003661
302.982000	0.366640	0.003666
302.991000	0.367185	0.003672
302.999000	0.367715	0.003677
303.009000	0.368199	0.003682
303.018000	0.368715	0.003687
303.026000	0.369140	0.003691
303.034000	0.369510	0.003695
303.043000	0.369842	0.003698
303.054000	0.370105	0.003701
303.068000	0.370286	0.003703
303.082000	0.370418	0.003704
303.098000	0.370491	0.003705
303.116000	0.370525	0.003705
303.138000	0.370510	0.003705
303.161000	0.370458	0.003705
303.183000	0.370368	0.003704
303.202000	0.370273	0.003703
303.220000	0.370155	0.003702
303.234000	0.370040	0.003700
303.248000	0.369917	0.003699
303.259000	0.369791	0.003698
303.266000	0.369672	0.003697
303.272000	0.369555	0.003696
303.276000	0.369443	0.003694
303.281000	0.369324	0.003693
303.284000	0.369223	0.003692
303.281000	0.369131	0.003691
303.279000	0.369056	0.003691
303.276000	0.368920	0.003689
303.273000	0.368894	0.003689
303.274000	0.368925	0.003689
303.275000	0.369002	0.003690
303.281000	0.369032	0.003690
303.290000	0.369060	0.003691
303.300000	0.369054	0.003691
303.311000	0.369016	0.003690
303.324000	0.368976	0.003690
303.336000	0.368879	0.003689
303.351000	0.368755	0.003688
303.364000	0.368642	0.003686
303.381000	0.368546	0.003685
303.398000	0.368483	0.003685
303.413000	0.368471	0.003685
303.430000	0.368489	0.003685
303.446000	0.368545	0.003685
303.463000	0.368629	0.003686
303.477000	0.368741	0.003687
303.491000	0.368859	0.003689
303.507000	0.368972	0.003690
303.521000	0.369081	0.003691
303.533000	0.369180	0.003692
303.546000	0.369262	0.003693
303.559000	0.369272	0.003693
303.572000	0.369237	0.003692
303.584000	0.369298	0.003693
303.594000	0.369329	0.003693
303.605000	0.369307	0.003693
303.613000	0.369272	0.003693
303.620000	0.369224	0.003692
303.627000	0.369175	0.003692
303.634000	0.369135	0.003691
303.643000	0.369107	0.003691
303.652000	0.369100	0.003691
303.661000	0.369093	0.003691
303.670000	0.369103	0.003691
303.679000	0.369104	0.003691
303.688000	0.369135	0.003691
303.698000	0.369146	0.003691
303.709000	0.369123	0.003691
303.718000	0.369090	0.003691
303.728000	0.369049	0.003690
303.739000	0.369022	0.003690
303.754000	0.369010	0.003690
303.771000	0.369008	0.003690
303.787000	0.369014	0.003690
303.801000	0.369045	0.003690
303.814000	0.369095	0.003691
303.827000	0.369096	0.003691
303.841000	0.369270	0.003693
303.855000	0.369357	0.003694
303.872000	0.369433	0.003694
303.887000	0.369498	0.003695
303.900000	0.369567	0.003696
303.915000	0.369634	0.003696
303.928000	0.369675	0.003697
303.940000	0.369716	0.003697
303.950000	0.369743	0.003697
303.959000	0.369759	0.003698
303.966000	0.369777	0.003698
303.974000	0.369778	0.003698
303.980000	0.369781	0.003698
303.987000	0.369764	0.003698
303.995000	0.369749	0.003697
304.005000	0.369748	0.003697
304.016000	0.369760	0.003698
304.028000	0.369780	0.003698
304.044000	0.369800	0.003698
304.060000	0.369818	0.003698
304.080000	0.369831	0.003698
304.098000	0.369814	0.003698
304.121000	0.369768	0.003698
304.151000	0.369711	0.003697
304.180000	0.369626	0.003696
304.209000	0.369572	0.003696
304.237000	0.369511	0.003695
304.262000	0.369494	0.003695
304.285000	0.369467	0.003695
304.306000	0.369433	0.003694
304.323000	0.369410	0.003694
304.339000	0.369416	0.003694
304.353000	0.369446	0.003694
304.365000	0.369474	0.003695
304.378000	0.369530	0.003695
304.389000	0.369594	0.003696
304.400000	0.369673	0.003697
304.410000	0.369776	0.003698
304.421000	0.369877	0.003699
304.432000	0.369973	0.003700
304.444000	0.370074	0.003701
304.454000	0.370168	0.003702
304.464000	0.370251	0.003703
304.473000	0.370318	0.003703
304.481000	0.370365	0.003704
304.487000	0.370412	0.003704
304.494000	0.370469	0.003705
304.500000	0.370514	0.003705
304.505000	0.370509	0.003705
304.511000	0.370510	0.003705
304.513000	0.370538	0.003705
304.511000	0.370455	0.003705
304.505000	0.370322	0.003703
304.498000	0.370106	0.003701
304.494000	0.369874	0.003699
304.493000	0.369630	0.003696
304.495000	0.369396	0.003694
304.498000	0.369174	0.003692
304.502000	0.368959	0.003690
304.509000	0.368770	0.003688
304.518000	0.368615	0.003686
304.525000	0.368486	0.003685
304.528000	0.368404	0.003684
304.529000	0.368363	0.003684
304.529000	0.368357	0.003684
304.531000	0.368386	0.003684
304.534000	0.368436	0.003684
304.537000	0.368511	0.003685
304.542000	0.368605	0.003686
304.550000	0.368701	0.003687
304.556000	0.368803	0.003688
304.567000	0.368922	0.003689
304.579000	0.369030	0.003690
304.590000	0.369116	0.003691
304.599000	0.369293	0.003693
304.606000	0.369419	0.003694
304.611000	0.369597	0.003696
304.614000	0.369753	0.003698
304.614000	0.369925	0.003699
304.612000	0.370052	0.003701
304.609000	0.370178	0.003702
304.606000	0.370264	0.003703
304.602000	0.370317	0.003703
304.600000	0.370352	0.003704
304.597000	0.370357	0.003704
304.595000	0.370349	0.003703
304.593000	0.370323	0.003703
304.594000	0.370310	0.003703
304.597000	0.370262	0.003703
304.602000	0.370208	0.003702
304.607000	0.370159	0.003702
304.612000	0.370124	0.003701
304.619000	0.370095	0.003701
304.624000	0.370088	0.003701
304.630000	0.370085	0.003701
304.635000	0.370121	0.003701
304.640000	0.370179	0.003702
304.643000	0.370221	0.003702
304.649000	0.370304	0.003703
304.650000	0.370473	0.003705
304.649000	0.370592	0.003706
304.644000	0.370725	0.003707
304.635000	0.370871	0.003709
304.628000	0.371016	0.003710
304.624000	0.371144	0.003711
304.623000	0.371250	0.003713
304.623000	0.371348	0.003713
304.623000	0.371446	0.003714
304.622000	0.371534	0.003715
304.620000	0.371637	0.003716
304.618000	0.371724	0.003717
304.616000	0.371828	0.003718
304.612000	0.371918	0.003719
304.608000	0.372007	0.003720
304.603000	0.372067	0.003721
304.599000	0.372091	0.003721
304.596000	0.372088	0.003721
304.593000	0.372023	0.003720
304.592000	0.371904	0.003719
304.594000	0.371724	0.003717
304.596000	0.371494	0.003715
304.597000	0.371257	0.003713
304.600000	0.370974	0.003710
304.605000	0.370711	0.003707
304.611000	0.370471	0.003705
304.620000	0.370201	0.003702
304.634000	0.369978	0.003700
304.652000	0.369744	0.003697
304.672000	0.369537	0.003695
304.688000	0.369330	0.003693
304.699000	0.369135	0.003691
304.709000	0.368955	0.003690
304.717000	0.368785	0.003688
304.724000	0.368643	0.003686
304.727000	0.368492	0.003685
304.730000	0.368370	0.003684
304.737000	0.368271	0.003683
304.749000	0.368180	0.003682
304.764000	0.368118	0.003681
304.778000	0.368125	0.003681
304.790000	0.368177	0.003682
304.798000	0.368323	0.003683
304.805000	0.368583	0.003686
304.807000	0.368922	0.003689
304.807000	0.369358	0.003694
304.802000	0.369864	0.003699
304.795000	0.370530	0.003705
304.789000	0.371112	0.003711
304.784000	0.371735	0.003717
304.781000	0.372306	0.003723
304.779000	0.372853	0.003729
304.779000	0.373345	0.003733
304.780000	0.373737	0.003737
304.783000	0.374039	0.003740
304.790000	0.374238	0.003742
304.794000	0.374330	0.003743
304.797000	0.374329	0.003743
304.801000	0.374242	0.003742
304.805000	0.374082	0.003741
304.809000	0.373859	0.003739
304.813000	0.373572	0.003736
304.816000	0.373257	0.003733
304.815000	0.372927	0.003729
304.809000	0.372593	0.003726
304.798000	0.372263	0.003723
304.789000	0.371948	0.003719
304.781000	0.371663	0.003717
304.776000	0.371395	0.003714
